SensoriaRawDataFormat: 4.0
FirmwareRevision: 1.1.5.231R
DeviceName: Sensoria-C1-8462
SerialNumber: E22EC481EC559DCF
Location: 0x0000
Start: 2024-02-26T15:20:13-08:00
SamplingFrequency: 50
AfeName: N/A
AfeUnits: N/A
(null)
(null)
(null)
(null)
(null)
(null)
(null)
(null)

Tag,AutoTag,Tick,T,S0,S1,S2,Ax,Ay,Az,Gx,Gy,Gz,Mx,My,Mz,HRM,S3,S4,S5,S6,S7,CS0,CS1,CS2,CS3,CS4,CS5,CS6,CS7,RSSI,Timestamp,Zero
,,50424,0,325,163,185,-0.995117,0.010254,0.092285,1.181250,-4.051250,-0.630000,4.768944,4.781792,-1.182308,,162,143,126,117,912,,,,,,,,,-60,15:20:13.331,
,,50425,20,327,163,183,-0.986328,0.007812,0.091797,1.207500,-3.622500,-0.280000,4.768944,4.781792,-1.188878,,161,143,122,114,913,,,,,,,,,-60,15:20:13.362,
,,50426,40,326,163,182,-0.997070,0.006836,0.092285,1.251250,-3.430000,-0.061250,4.768944,4.781792,-1.188878,,160,141,127,114,913,,,,,,,,,-60,15:20:13.363,
,,50427,60,327,164,185,-1.000977,0.011719,0.093750,1.417500,-3.832500,0.078750,4.768944,4.781792,-1.186688,,161,143,132,117,914,,,,,,,,,-60,15:20:13.394,
,,50428,80,326,161,184,-0.997070,0.010254,0.087402,1.260000,-3.920000,-0.061250,4.768944,4.781792,-1.188148,,163,144,131,119,913,,,,,,,,,-60,15:20:13.423,
,,50429,100,326,162,184,-0.993164,0.010742,0.095215,1.155000,-4.077500,-0.420000,4.768944,4.781792,-1.180118,,162,144,126,118,913,,,,,,,,,-60,15:20:13.424,
,,50430,120,327,162,182,-0.992188,0.012207,0.093750,1.216250,-3.771250,-0.420000,4.768944,4.781792,-1.187564,,161,141,123,115,913,,,,,,,,,-60,15:20:13.452,
,,50431,140,328,164,184,-0.998047,0.008789,0.092773,1.382500,-3.928750,-0.052500,4.768944,4.781792,-1.187564,,162,143,126,116,911,,,,,,,,,-60,15:20:13.481,
,,50432,160,326,163,184,-0.997559,0.013184,0.098633,1.417500,-3.928750,-0.008750,4.768944,4.781792,-1.195740,,161,141,131,118,914,,,,,,,,,-60,15:20:13.512,
,,50433,180,327,160,185,-0.997559,0.010254,0.095703,1.356250,-4.060000,-0.192500,4.768944,4.781792,-1.192674,,161,145,134,119,914,,,,,,,,,-60,15:20:13.514,
,,50434,200,326,161,184,-0.990723,0.009277,0.095703,1.207500,-3.613750,-0.192500,4.768944,4.781792,-1.191214,,162,143,126,116,913,,,,,,,,,-60,15:20:13.543,
,,50435,220,326,163,182,-0.996094,0.012207,0.093750,1.286250,-3.465000,-0.122500,4.768944,4.781792,-1.187418,,162,141,123,116,914,,,,,,,,,-60,15:20:13.544,
,,50436,240,327,162,182,-0.995117,0.012207,0.095703,1.330000,-3.745000,-0.105000,4.768944,4.781792,-1.200120,,161,141,126,116,913,,,,,,,,,-60,15:20:13.572,
,,50437,260,328,162,185,-0.993652,0.011230,0.091797,1.338750,-3.911250,-0.140000,4.768944,4.781792,-1.200120,,161,144,130,118,914,,,,,,,,,-60,15:20:13.603,
,,50438,280,326,162,186,-0.997070,0.008789,0.093262,1.303750,-3.998750,-0.166250,4.768944,4.781792,-1.189900,,161,143,132,119,913,,,,,,,,,-60,15:20:13.604,
,,50439,300,327,162,185,-0.997559,0.009277,0.091797,1.251250,-4.042500,-0.043750,4.768944,4.781792,-1.190484,,162,141,128,115,914,,,,,,,,,-60,15:20:13.635,
,,50440,320,326,162,183,-0.996582,0.007324,0.100586,1.417500,-4.016250,-0.052500,4.768944,4.781792,-1.196178,,161,143,124,115,913,,,,,,,,,-60,15:20:13.664,
,,50441,340,327,163,182,-0.998047,0.012207,0.099121,1.373750,-3.473750,0.323750,4.768944,4.781792,-1.183184,,162,141,124,115,913,,,,,,,,,-60,15:20:13.665,
,,50442,360,326,162,184,-0.993652,0.012207,0.096191,1.382500,-3.185000,0.463750,4.768944,4.781792,-1.183184,,162,142,130,115,914,,,,,,,,,-60,15:20:13.694,
,,50443,380,328,163,185,-0.994629,0.011230,0.094238,1.286250,-2.966250,0.280000,4.768944,4.781792,-1.194280,,163,143,132,117,913,,,,,,,,,-60,15:20:13.724,
,,50444,400,327,161,184,-1.004883,0.019043,0.087891,2.380000,-2.520000,0.008750,4.768944,4.781792,-1.177198,,163,144,128,117,916,,,,,,,,,-60,15:20:13.725,
,,50445,420,327,161,184,-0.997559,0.011719,0.087402,1.137500,-4.121250,-0.262500,4.768944,4.781792,-1.170920,,162,143,125,114,916,,,,,,,,,-60,15:20:13.754,
,,50446,440,328,162,181,-0.997559,0.009766,0.092285,1.190000,-4.086250,-0.236250,4.768944,4.781792,-1.173256,,161,142,124,116,913,,,,,,,,,-60,15:20:13.813,
,,50447,460,327,161,185,-0.994141,0.010742,0.090332,1.216250,-3.858750,-0.157500,4.768944,4.781792,-1.173256,,163,141,130,117,913,,,,,,,,,-60,15:20:13.814,
,,50448,480,328,162,186,-0.988281,0.009277,0.098633,0.332500,-5.285000,-0.708750,4.768944,4.781792,-1.191068,,162,143,132,117,914,,,,,,,,,-60,15:20:13.815,
,,50449,500,325,162,185,-0.996582,0.016602,0.098633,1.146250,-3.981250,-0.455000,4.768944,4.781792,-1.195010,,161,145,130,117,914,,,,,,,,,-60,15:20:13.842,
,,50450,520,327,162,184,-1.000488,0.012695,0.094727,1.093750,-3.473750,-0.586250,4.768944,4.781792,-1.187272,,162,143,125,116,913,,,,,,,,,-60,15:20:13.842,
,,50451,540,326,161,183,-0.996094,0.012695,0.093750,1.216250,-3.596250,-0.271250,4.768944,4.781792,-1.190338,,160,141,124,114,912,,,,,,,,,-60,15:20:13.905,
,,50452,560,327,162,183,-0.994141,0.008301,0.092773,1.321250,-4.095000,-0.052500,4.768944,4.781792,-1.190338,,163,141,130,115,914,,,,,,,,,-60,15:20:13.907,
,,50453,580,325,162,183,-0.991699,0.007812,0.096680,1.417500,-4.445000,-0.218750,4.768944,4.781792,-1.197346,,162,144,131,117,913,,,,,,,,,-60,15:20:13.907,
,,50454,600,327,161,186,-0.994629,0.009766,0.095215,1.277500,-3.867500,-0.288750,4.768944,4.781792,-1.190192,,162,143,129,117,914,,,,,,,,,-60,15:20:13.963,
,,50455,620,327,161,183,-0.996094,0.008789,0.092285,1.181250,-3.727500,-0.350000,4.768944,4.781792,-1.185082,,162,142,124,116,912,,,,,,,,,-60,15:20:13.964,
,,50456,640,327,163,182,-0.998535,0.009766,0.098145,1.242500,-3.963750,-0.490000,4.768944,4.781792,-1.190484,,161,141,124,114,914,,,,,,,,,-60,15:20:13.965,
,,50457,660,328,162,182,-0.991211,0.007812,0.097656,1.303750,-3.648750,0.035000,4.768944,4.781792,-1.190484,,163,141,130,115,913,,,,,,,,,-60,15:20:13.992,
,,50458,680,327,162,183,-0.991211,0.009766,0.097168,1.365000,-3.552500,0.078750,4.768944,4.781792,-1.198952,,163,143,133,118,914,,,,,,,,,-60,15:20:14.022,
,,50459,700,325,162,186,-0.996094,0.008789,0.091797,1.207500,-3.683750,-0.245000,4.768944,4.781792,-1.198222,,162,144,130,117,914,,,,,,,,,-60,15:20:14.024,
,,50460,720,327,162,183,-0.998535,0.011230,0.094727,1.225000,-3.893750,-0.236250,4.768944,4.781792,-1.188732,,161,144,126,115,913,,,,,,,,,-60,15:20:14.054,
,,50461,740,327,162,182,-0.996582,0.009766,0.091309,1.277500,-3.911250,-0.245000,4.768944,4.781792,-1.188732,,161,142,124,114,913,,,,,,,,,-60,15:20:14.082,
,,50462,760,325,162,183,-0.996094,0.008301,0.093262,1.312500,-3.596250,-0.078750,4.768944,4.781792,-1.192382,,162,143,129,116,915,,,,,,,,,-60,15:20:14.084,
,,50463,780,326,162,185,-0.995605,0.012207,0.091797,1.312500,-3.526250,0.026250,4.768944,4.781792,-1.192382,,162,144,131,118,915,,,,,,,,,-60,15:20:14.114,
,,50464,800,327,161,185,-0.998047,0.011719,0.090820,1.303750,-3.815000,-0.043750,4.768944,4.781792,-1.177490,,162,143,131,118,914,,,,,,,,,-60,15:20:14.144,
,,50465,820,326,161,182,-0.995117,0.010742,0.096680,1.251250,-3.902500,-0.288750,4.768944,4.781792,-1.195156,,161,145,125,115,915,,,,,,,,,-60,15:20:14.144,
,,50466,840,324,161,184,-0.998047,0.005859,0.094238,1.216250,-3.552500,-0.411250,4.768944,4.781792,-1.183622,,161,141,123,116,914,,,,,,,,,-60,15:20:14.174,
,,50467,860,326,161,183,-0.998535,0.008301,0.092285,1.338750,-3.806250,-0.008750,4.768944,4.781792,-1.183914,,160,142,129,116,914,,,,,,,,,-60,15:20:14.202,
,,50468,880,326,161,182,-0.995117,0.005859,0.092285,1.312500,-3.823750,-0.166250,4.768944,4.781792,-1.189754,,161,143,124,114,913,,,,,,,,,-60,15:20:14.234,
,,50469,900,328,163,182,-0.994141,0.009766,0.095703,1.365000,-3.972500,-0.087500,4.768944,4.781792,-1.181724,,161,141,123,116,914,,,,,,,,,-60,15:20:14.264,
,,50470,920,328,163,182,-0.992188,0.012207,0.096191,1.242500,-3.867500,-0.236250,4.768944,4.781792,-1.185958,,162,141,127,116,913,,,,,,,,,-60,15:20:14.265,
,,50471,940,325,163,185,-0.998047,0.011230,0.089844,1.093750,-3.360000,-0.148750,4.768944,4.781792,-1.190630,,162,143,133,117,914,,,,,,,,,-60,15:20:14.293,
,,50472,960,326,161,184,-0.995605,0.012207,0.096680,1.233750,-3.753750,-0.113750,4.768944,4.781792,-1.195010,,162,142,132,117,914,,,,,,,,,-60,15:20:14.323,
,,50473,980,325,161,183,-0.998047,0.011719,0.093750,1.260000,-3.596250,-0.166250,4.768944,4.781792,-1.195010,,161,142,128,116,914,,,,,,,,,-60,15:20:14.324,
,,50474,1000,326,162,183,-0.995605,0.011719,0.092773,1.137500,-3.473750,-0.166250,4.768944,4.781792,-1.204792,,163,141,125,115,914,,,,,,,,,-60,15:20:14.352,
,,50475,1020,327,163,182,-0.994141,0.007812,0.091797,1.146250,-3.386250,-0.402500,4.768944,4.781792,-1.195594,,161,141,126,116,913,,,,,,,,,-60,15:20:14.382,
,,50476,1040,328,164,185,-0.997070,0.011230,0.093262,1.207500,-3.762500,-0.323750,4.768944,4.781792,-1.191652,,162,142,131,117,915,,,,,,,,,-60,15:20:14.392,
,,50477,1060,325,162,186,-0.997559,0.008789,0.093750,1.277500,-3.456250,-0.332500,4.768944,4.781792,-1.201872,,161,143,132,118,911,,,,,,,,,-60,15:20:14.414,
,,50478,1080,325,162,183,-0.996582,0.010254,0.093750,1.321250,-3.718750,-0.078750,4.768944,4.781792,-1.201872,,161,143,128,115,913,,,,,,,,,-60,15:20:14.444,
,,50479,1100,328,161,182,-0.990723,0.011719,0.097656,1.417500,-3.972500,-0.052500,4.768944,4.781792,-1.200704,,162,143,123,114,912,,,,,,,,,-60,15:20:14.444,
,,50480,1120,328,162,182,-0.993652,0.010742,0.093750,1.338750,-4.086250,-0.087500,4.768944,4.781792,-1.187272,,161,141,125,115,914,,,,,,,,,-60,15:20:14.474,
,,50481,1140,327,162,183,-0.992676,0.012695,0.095703,1.233750,-3.718750,0.026250,4.768944,4.781792,-1.184790,,162,143,130,117,914,,,,,,,,,-60,15:20:14.504,
,,50482,1160,327,162,183,-0.998047,0.007324,0.093262,1.321250,-3.727500,-0.061250,4.768944,4.781792,-1.186104,,161,143,131,116,914,,,,,,,,,-60,15:20:14.504,
,,50483,1180,327,161,182,-0.997070,0.011719,0.091309,1.347500,-3.806250,0.105000,4.768944,4.781792,-1.186104,,161,143,126,116,913,,,,,,,,,-60,15:20:14.534,
,,50484,1200,326,162,181,-0.995117,0.009766,0.095703,1.391250,-4.068750,-0.017500,4.768944,4.781792,-1.193404,,162,142,125,115,914,,,,,,,,,-60,15:20:14.563,
,,50485,1220,327,163,183,-0.995117,0.011230,0.093262,1.408750,-3.955000,0.043750,4.768944,4.781792,-1.193112,,161,142,125,115,912,,,,,,,,,-60,15:20:14.564,
,,50486,1240,325,162,183,-0.995605,0.011230,0.096191,1.347500,-3.937500,-0.096250,4.768944,4.781792,-1.195156,,162,142,130,115,914,,,,,,,,,-60,15:20:14.594,
,,50487,1260,328,162,184,-0.995605,0.008301,0.092285,1.347500,-3.867500,-0.105000,4.768944,4.781792,-1.195010,,162,144,130,116,914,,,,,,,,,-60,15:20:14.624,
,,50488,1280,326,161,185,-0.994629,0.010742,0.089844,1.295000,-3.648750,-0.183750,4.768944,4.781792,-1.195010,,162,143,127,115,913,,,,,,,,,-60,15:20:14.624,
,,50489,1300,328,161,181,-0.994629,0.008789,0.093262,1.225000,-3.911250,-0.236250,4.768944,4.781792,-1.188294,,159,142,123,115,913,,,,,,,,,-60,15:20:14.654,
,,50490,1320,325,163,181,-0.991211,0.008789,0.097168,1.286250,-3.972500,-0.218750,4.768944,4.781792,-1.190922,,162,141,126,116,913,,,,,,,,,-60,15:20:14.684,
,,50491,1340,326,161,183,-0.998535,0.009766,0.092773,1.286250,-3.780000,-0.175000,4.768944,4.781792,-1.191068,,161,141,130,117,911,,,,,,,,,-60,15:20:14.684,
,,50492,1360,326,162,185,-0.997559,0.007812,0.096191,1.277500,-4.042500,-0.175000,4.768944,4.781792,-1.187856,,162,143,131,117,914,,,,,,,,,-60,15:20:14.714,
,,50493,1380,326,161,184,-0.990234,0.009766,0.098145,1.470000,-4.550000,0.017500,4.768944,4.781792,-1.189024,,162,143,127,115,912,,,,,,,,,-60,15:20:14.743,
,,50494,1400,326,161,183,-0.992188,0.009766,0.096680,1.181250,-3.902500,-0.358750,4.768944,4.781792,-1.189024,,161,142,125,115,913,,,,,,,,,-60,15:20:14.744,
,,50495,1420,328,162,182,-0.993652,0.012207,0.088867,1.172500,-3.500000,-0.227500,4.768944,4.781792,-1.182016,,161,141,125,116,913,,,,,,,,,-60,15:20:14.771,
,,50496,1440,328,162,183,-0.992676,0.010254,0.097168,1.268750,-3.745000,-0.140000,4.768944,4.781792,-1.193112,,163,142,130,117,914,,,,,,,,,-60,15:20:14.801,
,,50497,1460,327,162,185,-0.999512,0.014160,0.097656,1.365000,-3.990000,-0.131250,4.768944,4.781792,-1.188878,,162,143,131,117,913,,,,,,,,,-60,15:20:14.810,
,,50498,1480,326,163,186,-0.996582,0.011230,0.093750,1.242500,-3.876250,-0.131250,4.768944,4.781792,-1.194572,,162,144,127,115,913,,,,,,,,,-60,15:20:14.834,
,,50499,1500,327,164,183,-0.990234,0.010742,0.094727,1.330000,-3.718750,-0.061250,4.768944,4.781792,-1.194572,,162,142,125,116,914,,,,,,,,,-60,15:20:14.864,
,,50500,1520,327,162,182,-0.990723,0.009766,0.098633,1.321250,-3.666250,-0.148750,4.768944,4.781792,-1.195010,,159,142,125,114,913,,,,,,,,,-60,15:20:14.864,
,,50501,1540,327,162,182,-0.995605,0.012695,0.092773,1.242500,-3.745000,-0.183750,4.768944,4.781792,-1.202894,,161,142,129,117,913,,,,,,,,,-60,15:20:14.892,
,,50502,1560,326,163,184,-0.999512,0.014160,0.096680,1.216250,-3.605000,-0.096250,4.768944,4.781792,-1.192236,,162,142,132,117,913,,,,,,,,,-60,15:20:14.923,
,,50503,1580,326,162,183,-0.995605,0.011230,0.093262,1.303750,-3.683750,-0.078750,4.768944,4.781792,-1.202748,,162,145,130,116,914,,,,,,,,,-60,15:20:14.923,
,,50504,1600,326,160,181,-0.989258,0.009766,0.094727,1.268750,-4.051250,-0.131250,4.768944,4.781792,-1.202748,,161,144,126,114,914,,,,,,,,,-60,15:20:14.952,
,,50505,1620,326,164,182,-0.991211,0.012207,0.095215,1.321250,-4.068750,-0.253750,4.768944,4.781792,-1.191360,,160,143,126,115,912,,,,,,,,,-60,15:20:14.981,
,,50506,1640,328,162,183,-0.996094,0.011230,0.095703,1.330000,-3.832500,-0.078750,4.768944,4.781792,-1.188732,,161,142,129,117,914,,,,,,,,,-60,15:20:15.012,
,,50507,1660,325,162,183,-0.999512,0.010742,0.091797,1.242500,-3.578750,-0.166250,4.768944,4.781792,-1.189316,,162,142,131,117,913,,,,,,,,,-60,15:20:15.014,
,,50508,1680,326,161,183,-0.997070,0.007812,0.093262,1.225000,-3.876250,-0.227500,4.768944,4.781792,-1.181578,,162,143,130,116,912,,,,,,,,,-60,15:20:15.044,
,,50509,1700,328,162,183,-0.994629,0.012695,0.095703,1.207500,-3.823750,-0.288750,4.768944,4.781792,-1.181578,,162,143,125,115,914,,,,,,,,,-60,15:20:15.044,
,,50510,1720,328,162,183,-0.996094,0.009277,0.091797,1.303750,-3.701250,-0.026250,4.768944,4.781792,-1.201872,,160,142,126,115,912,,,,,,,,,-60,15:20:15.072,
,,50511,1740,328,161,182,-0.997559,0.010742,0.091797,1.347500,-3.736250,-0.113750,4.768944,4.781792,-1.184936,,161,142,126,115,912,,,,,,,,,-65,15:20:15.102,
,,50512,1760,326,163,184,-0.996582,0.008301,0.091797,1.190000,-3.911250,-0.332500,4.768944,4.781792,-1.193258,,164,141,131,117,914,,,,,,,,,-65,15:20:15.103,
,,50513,1780,328,162,185,-0.992676,0.007812,0.094727,1.338750,-3.928750,-0.157500,4.768944,4.781792,-1.202602,,162,144,129,118,913,,,,,,,,,-65,15:20:15.131,
,,50514,1800,327,162,183,-0.994629,0.010742,0.096191,1.312500,-3.753750,0.008750,4.768944,4.781792,-1.202602,,162,142,125,115,914,,,,,,,,,-65,15:20:15.162,
,,50515,1820,327,162,183,-0.997070,0.013672,0.092773,1.347500,-3.771250,-0.035000,4.768944,4.781792,-1.188732,,161,142,124,114,914,,,,,,,,,-65,15:20:15.164,
,,50516,1840,327,162,182,-0.996582,0.005859,0.097656,1.190000,-4.051250,-0.367500,4.768944,4.781792,-1.192236,,161,140,127,117,914,,,,,,,,,-65,15:20:15.194,
,,50517,1860,457,208,215,-0.996582,0.011230,0.091309,1.198750,-3.972500,-0.341250,4.768944,4.781792,-1.196762,,182,156,134,121,915,,,,,,,,,-65,15:20:15.224,
,,50518,1880,330,164,191,-0.992676,0.008789,0.097168,1.268750,-3.430000,-0.070000,4.768944,4.781792,-1.196762,,168,149,134,119,915,,,,,,,,,-65,15:20:15.225,
,,50519,1900,328,162,187,-0.992188,0.011719,0.095703,1.190000,-3.578750,-0.157500,4.768944,4.781792,-1.194280,,164,145,134,119,914,,,,,,,,,-65,15:20:15.254,
,,50520,1920,327,162,186,-0.993164,0.008301,0.097656,1.190000,-3.902500,-0.402500,4.768944,4.781792,-1.199682,,164,143,133,118,914,,,,,,,,,-65,15:20:15.313,
,,50521,1940,327,162,185,-1.001953,0.016113,0.089844,1.312500,-3.823750,-0.183750,4.768944,4.781792,-1.190192,,162,143,129,116,911,,,,,,,,,-65,15:20:15.314,
,,50522,1960,327,162,183,-0.998535,0.011230,0.090820,1.233750,-3.648750,-0.227500,4.768944,4.781792,-1.202018,,161,142,123,117,912,,,,,,,,,-65,15:20:15.315,
,,50523,1980,326,162,183,-0.996094,0.010254,0.091797,1.295000,-3.771250,-0.113750,4.768944,4.781792,-1.202018,,160,141,127,116,913,,,,,,,,,-65,15:20:15.342,
,,50524,2000,326,162,184,-0.991211,0.009766,0.097168,1.251250,-3.771250,-0.166250,4.768944,4.781792,-1.203916,,164,142,132,117,913,,,,,,,,,-65,15:20:15.343,
,,50525,2020,325,161,184,-0.996094,0.011230,0.092773,1.295000,-3.666250,-0.183750,4.768944,4.781792,-1.196178,,162,143,130,117,913,,,,,,,,,-65,15:20:15.371,
,,50526,2040,326,163,184,-0.993652,0.012695,0.095703,1.268750,-3.552500,-0.105000,4.768944,4.781792,-1.200558,,162,143,128,116,913,,,,,,,,,-65,15:20:15.402,
,,50527,2060,328,162,183,-0.997070,0.010742,0.090332,1.251250,-3.815000,-0.157500,4.768944,4.781792,-1.196032,,160,141,123,114,913,,,,,,,,,-65,15:20:15.411,
,,50528,2080,328,163,183,-0.997559,0.007324,0.092285,1.198750,-4.095000,-0.315000,4.768944,4.781792,-1.193550,,162,144,128,116,914,,,,,,,,,-65,15:20:15.434,
,,50529,2100,326,160,183,-0.994141,0.010742,0.095215,1.260000,-3.578750,-0.052500,4.768944,4.781792,-1.191798,,160,141,124,114,913,,,,,,,,,-65,15:20:15.463,
,,50530,2120,327,163,182,-0.992188,0.012207,0.095215,1.312500,-3.736250,-0.166250,4.768944,4.781792,-1.196908,,161,141,126,115,913,,,,,,,,,-65,15:20:15.464,
,,50531,2140,326,161,183,-0.995117,0.011230,0.095703,1.330000,-3.928750,-0.192500,4.768944,4.781792,-1.196908,,162,141,127,116,913,,,,,,,,,-65,15:20:15.491,
,,50532,2160,327,162,186,-1.001465,0.012695,0.092773,1.286250,-4.182500,-0.245000,4.768944,4.781792,-1.188878,,163,143,130,116,913,,,,,,,,,-65,15:20:15.521,
,,50533,2180,326,161,184,-0.998047,0.009766,0.090332,1.277500,-4.007500,-0.376250,4.768944,4.781792,-1.194864,,162,142,128,118,914,,,,,,,,,-65,15:20:15.523,
,,50534,2200,326,163,183,-0.991699,0.012695,0.096680,1.233750,-3.727500,-0.367500,4.768944,4.781792,-1.187272,,162,143,124,116,914,,,,,,,,,-65,15:20:15.552,
,,50535,2220,327,163,183,-0.991211,0.008789,0.095703,1.347500,-3.517500,-0.122500,4.768944,4.781792,-1.192528,,161,141,125,115,913,,,,,,,,,-65,15:20:15.581,
,,50536,2240,327,164,184,-1.000488,0.013184,0.091309,1.365000,-3.745000,-0.035000,4.768944,4.781792,-1.192528,,162,142,131,115,914,,,,,,,,,-65,15:20:15.589,
,,50537,2260,326,161,185,-0.996582,0.006836,0.093750,1.286250,-4.007500,-0.070000,4.768944,4.781792,-1.199682,,162,142,130,117,914,,,,,,,,,-65,15:20:15.673,
,,50538,2280,327,161,185,-0.997559,0.010254,0.091309,1.312500,-3.815000,-0.175000,4.768944,4.781792,-1.184352,,161,144,127,115,912,,,,,,,,,-65,15:20:15.674,
,,50539,2300,326,161,183,-0.995605,0.010254,0.092285,1.216250,-3.823750,-0.157500,4.768944,4.781792,-1.179242,,162,143,123,113,914,,,,,,,,,-65,15:20:15.675,
,,50540,2320,327,163,182,-0.994629,0.010742,0.095703,1.321250,-4.095000,-0.201250,4.768944,4.781792,-1.192674,,162,141,125,115,912,,,,,,,,,-65,15:20:15.676,
,,50541,2340,327,162,183,-0.997559,0.010742,0.093262,1.225000,-3.438750,-0.140000,4.768944,4.781792,-1.192674,,162,141,130,116,913,,,,,,,,,-65,15:20:15.704,
,,50542,2360,325,161,185,-0.996582,0.010254,0.093750,1.382500,-3.561250,-0.052500,4.768944,4.781792,-1.199244,,161,143,132,117,913,,,,,,,,,-65,15:20:15.704,
,,50543,2380,325,162,185,-0.996582,0.008301,0.090820,1.277500,-4.217500,-0.113750,4.768944,4.781792,-1.198222,,162,143,128,115,912,,,,,,,,,-65,15:20:15.733,
,,50544,2400,326,161,182,-0.993164,0.011719,0.094238,1.330000,-3.955000,-0.105000,4.768944,4.781792,-1.199682,,161,142,125,115,914,,,,,,,,,-65,15:20:15.764,
,,50545,2420,328,162,184,-0.997070,0.011230,0.092285,1.365000,-3.727500,0.017500,4.768944,4.781792,-1.204500,,161,142,124,116,913,,,,,,,,,-65,15:20:15.764,
,,50546,2440,328,161,184,-0.996582,0.011230,0.090332,1.286250,-3.491250,-0.192500,4.768944,4.781792,-1.204500,,162,141,130,114,913,,,,,,,,,-65,15:20:15.792,
,,50547,2460,326,162,184,-1.000977,0.013184,0.093262,1.216250,-3.815000,-0.288750,4.768944,4.781792,-1.198368,,162,142,131,117,913,,,,,,,,,-65,15:20:15.821,
,,50548,2480,326,161,184,-0.999023,0.011230,0.094727,1.277500,-3.526250,-0.183750,4.768944,4.781792,-1.191652,,162,141,129,116,913,,,,,,,,,-65,15:20:15.823,
,,50549,2500,329,162,184,-0.991699,0.011230,0.091309,1.391250,-3.508750,0.026250,4.768944,4.781792,-1.186980,,162,144,126,115,914,,,,,,,,,-65,15:20:15.852,
,,50550,2520,327,164,184,-1.002930,0.020020,0.086914,2.406250,-2.091250,0.647500,4.768944,4.781792,-1.186104,,160,141,126,115,914,,,,,,,,,-65,15:20:15.882,
,,50551,2540,326,164,183,-0.996094,0.009277,0.095703,0.866250,-4.698750,0.175000,4.768944,4.781792,-1.186104,,161,142,129,116,914,,,,,,,,,-65,15:20:15.891,
,,50552,2560,327,162,184,-1.002930,0.019531,0.088867,1.470000,-4.173750,-0.210000,4.768944,4.781792,-1.188002,,162,142,130,117,912,,,,,,,,,-65,15:20:15.914,
,,50553,2580,326,161,183,-0.996094,0.010742,0.090820,1.006250,-4.156250,-0.210000,4.768944,4.781792,-1.187418,,163,144,127,116,912,,,,,,,,,-65,15:20:15.944,
,,50554,2600,325,161,182,-0.992188,0.011719,0.098145,0.901250,-4.497500,-0.586250,4.768944,4.781792,-1.185958,,161,143,124,114,912,,,,,,,,,-65,15:20:15.944,
,,50555,2620,326,163,183,-0.992188,0.012695,0.094238,1.190000,-4.287500,-0.717500,4.768944,4.781792,-1.184936,,161,141,124,115,913,,,,,,,,,-65,15:20:15.974,
,,50556,2640,325,160,183,-0.999023,0.011719,0.093262,1.330000,-3.858750,-0.140000,4.768944,4.781792,-1.186980,,161,142,130,116,914,,,,,,,,,-65,15:20:16.004,
,,50557,2660,325,162,183,-0.999023,0.011230,0.095215,1.373750,-3.535000,0.262500,4.768944,4.781792,-1.186980,,162,142,130,118,913,,,,,,,,,-65,15:20:16.004,
,,50558,2680,325,162,186,-1.001953,0.015625,0.091797,1.373750,-3.920000,0.148750,4.768944,4.781792,-1.190338,,162,144,130,117,913,,,,,,,,,-65,15:20:16.034,
,,50559,2700,327,162,184,-0.994141,0.011230,0.094727,1.146250,-4.270000,-0.428750,4.768944,4.781792,-1.190192,,162,144,124,116,915,,,,,,,,,-65,15:20:16.063,
,,50560,2720,326,162,183,-0.990723,0.012695,0.094727,1.155000,-4.077500,-0.630000,4.768944,4.781792,-1.191068,,162,141,124,115,913,,,,,,,,,-65,15:20:16.064,
,,50561,2740,328,160,182,-0.992188,0.011230,0.097168,1.181250,-3.543750,-0.367500,4.768944,4.781792,-1.190630,,161,141,128,115,914,,,,,,,,,-65,15:20:16.122,
,,50562,2760,326,162,184,-0.996094,0.011719,0.094238,1.277500,-3.508750,-0.113750,4.768944,4.781792,-1.190630,,161,143,130,117,913,,,,,,,,,-65,15:20:16.124,
,,50563,2780,326,162,185,-0.998047,0.011230,0.094727,1.225000,-3.718750,-0.236250,4.768944,4.781792,-1.190484,,162,143,129,117,913,,,,,,,,,-65,15:20:16.154,
,,50564,2800,325,162,183,-0.994629,0.011719,0.096191,1.338750,-3.955000,-0.245000,4.768944,4.781792,-1.195010,,161,142,126,115,913,,,,,,,,,-65,15:20:16.155,
,,50565,2820,326,163,183,-0.993164,0.012207,0.093750,1.312500,-3.666250,-0.070000,4.768944,4.781792,-1.196032,,160,140,124,114,914,,,,,,,,,-65,15:20:16.183,
,,50566,2840,327,162,183,-0.996582,0.009766,0.091309,1.216250,-3.613750,-0.105000,4.768944,4.781792,-1.193404,,162,139,127,117,913,,,,,,,,,-65,15:20:16.184,
,,50567,2860,319,159,180,-0.995605,0.009766,0.090332,1.286250,-3.587500,-0.218750,4.768944,4.781792,-1.193404,,158,139,124,114,913,,,,,,,,,-65,15:20:16.212,
,,50568,2880,326,163,181,-0.999023,0.010742,0.090332,1.260000,-3.972500,-0.227500,4.768944,4.781792,-1.196762,,160,141,127,113,913,,,,,,,,,-65,15:20:16.242,
,,50569,2900,326,161,184,-0.995605,0.011230,0.095215,1.268750,-3.972500,-0.157500,4.768944,4.781792,-1.196470,,161,142,129,117,914,,,,,,,,,-65,15:20:16.243,
,,50570,2920,327,161,183,-0.992676,0.014648,0.094238,1.268750,-3.710000,-0.043750,4.768944,4.781792,-1.203040,,161,143,132,117,913,,,,,,,,,-65,15:20:16.271,
,,50571,2940,326,163,183,-0.993164,0.014160,0.095703,1.373750,-3.736250,0.052500,4.768944,4.781792,-1.203040,,162,143,127,116,913,,,,,,,,,-65,15:20:16.301,
,,50572,2960,326,163,182,-0.994141,0.011719,0.094727,1.330000,-3.885000,-0.096250,4.768944,4.781792,-1.186688,,161,141,122,115,915,,,,,,,,,-65,15:20:16.310,
,,50573,2980,326,163,183,-0.999023,0.013184,0.097656,1.303750,-3.815000,-0.148750,4.768944,4.781792,-1.191068,,161,141,126,115,912,,,,,,,,,-65,15:20:16.332,
,,50574,3000,327,160,184,-0.994141,0.012207,0.093262,1.233750,-3.736250,-0.210000,4.768944,4.781792,-1.184790,,162,141,130,117,916,,,,,,,,,-65,15:20:16.362,
,,50575,3020,325,161,183,-0.996094,0.008301,0.090820,1.251250,-3.386250,-0.175000,4.768944,4.781792,-1.191798,,161,142,131,117,913,,,,,,,,,-65,15:20:16.363,
,,50576,3040,326,162,184,-0.998047,0.010742,0.090332,1.242500,-3.631250,-0.201250,4.768944,4.781792,-1.191798,,160,143,128,115,914,,,,,,,,,-65,15:20:16.392,
,,50577,3060,326,161,183,-1.001953,0.015625,0.092285,1.216250,-3.920000,-0.227500,4.768944,4.781792,-1.186980,,161,142,125,116,913,,,,,,,,,-65,15:20:16.422,
,,50578,3080,326,162,182,-0.994629,0.011230,0.094238,1.260000,-3.885000,-0.218750,4.768944,4.781792,-1.186542,,159,142,126,115,913,,,,,,,,,-65,15:20:16.423,
,,50579,3100,327,163,184,-0.991699,0.011230,0.096191,1.321250,-3.876250,-0.192500,4.768944,4.781792,-1.205960,,161,142,130,117,913,,,,,,,,,-65,15:20:16.451,
,,50580,3120,327,159,184,-0.992188,0.013672,0.096680,1.312500,-3.736250,-0.061250,4.768944,4.781792,-1.188440,,162,144,130,116,914,,,,,,,,,-65,15:20:16.481,
,,50581,3140,327,164,182,-0.997559,0.010742,0.091797,1.233750,-3.745000,-0.105000,4.768944,4.781792,-1.188440,,164,143,127,116,913,,,,,,,,,-65,15:20:16.491,
,,50582,3160,328,162,182,-0.997559,0.012207,0.099121,1.233750,-3.963750,-0.148750,4.768944,4.781792,-1.190338,,161,142,123,115,914,,,,,,,,,-65,15:20:16.511,
,,50583,3180,326,162,182,-0.994141,0.011230,0.095703,1.251250,-3.736250,-0.271250,4.768944,4.781792,-1.190192,,161,141,125,117,913,,,,,,,,,-65,15:20:16.541,
,,50584,3200,325,162,183,-0.994629,0.011230,0.090332,1.251250,-3.526250,-0.253750,4.768944,4.781792,-1.186688,,161,141,130,117,913,,,,,,,,,-65,15:20:16.543,
,,50585,3220,326,164,184,-0.997559,0.006836,0.091797,1.277500,-3.867500,-0.113750,4.768944,4.781792,-1.189462,,162,143,129,115,913,,,,,,,,,-65,15:20:16.571,
,,50586,3240,326,162,184,-0.996094,0.013184,0.094238,1.242500,-3.876250,-0.332500,4.768944,4.781792,-1.189462,,161,143,126,116,913,,,,,,,,,-65,15:20:16.603,
,,50587,3260,327,162,182,-0.991211,0.011230,0.095703,1.216250,-3.946250,-0.542500,4.768944,4.781792,-1.190338,,160,142,125,118,911,,,,,,,,,-65,15:20:16.603,
,,50588,3280,325,164,183,-0.993164,0.009766,0.095703,1.225000,-3.500000,-0.166250,4.768944,4.781792,-1.201580,,161,143,125,115,913,,,,,,,,,-65,15:20:16.632,
,,50589,3300,327,162,182,-0.997070,0.007812,0.093262,1.181250,-3.718750,-0.385000,4.768944,4.781792,-1.199098,,162,142,125,116,913,,,,,,,,,-65,15:20:16.664,
,,50590,3320,326,163,184,-0.997070,0.011230,0.092773,1.295000,-3.858750,-0.376250,4.768944,4.781792,-1.181870,,161,143,125,116,914,,,,,,,,,-65,15:20:16.664,
,,50591,3340,325,162,183,-0.993164,0.009766,0.093262,1.163750,-3.718750,-0.577500,4.768944,4.781792,-1.198368,,162,142,130,117,912,,,,,,,,,-65,15:20:16.694,
,,50592,3360,325,161,186,-0.995605,0.009766,0.092285,1.286250,-3.613750,-0.218750,4.768944,4.781792,-1.196908,,162,144,131,117,915,,,,,,,,,-65,15:20:16.724,
,,50593,3380,328,161,185,-0.998535,0.009277,0.088379,1.347500,-4.007500,-0.131250,4.768944,4.781792,-1.204938,,162,144,127,116,912,,,,,,,,,-65,15:20:16.724,
,,50594,3400,327,163,183,-1.003418,0.017578,0.090820,1.347500,-4.033750,-0.017500,4.768944,4.781792,-1.204938,,161,142,125,116,914,,,,,,,,,-65,15:20:16.754,
,,50595,3420,326,162,183,-0.996582,0.008789,0.092773,1.268750,-3.928750,-0.218750,4.768944,4.781792,-1.209026,,161,142,126,116,913,,,,,,,,,-65,15:20:16.782,
,,50596,3440,327,162,181,-0.994629,0.010254,0.092773,1.260000,-3.762500,-0.131250,4.768944,4.781792,-1.196616,,161,141,129,117,913,,,,,,,,,-65,15:20:16.792,
,,50597,3460,327,162,184,-0.995117,0.011230,0.091797,1.225000,-3.675000,-0.113750,4.768944,4.781792,-1.208004,,161,142,131,118,914,,,,,,,,,-65,15:20:16.812,
,,50598,3480,326,162,185,-0.999512,0.011230,0.096680,1.225000,-3.745000,-0.175000,4.768944,4.781792,-1.201434,,162,144,127,116,913,,,,,,,,,-65,15:20:16.842,
,,50599,3500,328,162,184,-0.992676,0.010254,0.096191,1.295000,-3.753750,-0.122500,4.768944,4.781792,-1.201434,,161,143,126,116,913,,,,,,,,,-65,15:20:16.871,
,,50600,3520,327,161,182,-0.996582,0.007324,0.090820,1.286250,-3.902500,-0.280000,4.768944,4.781792,-1.213698,,161,142,125,114,912,,,,,,,,,-65,15:20:16.880,
,,50601,3540,328,162,183,-0.994141,0.008301,0.095703,1.242500,-4.086250,-0.428750,4.768944,4.781792,-1.202894,,162,141,127,116,914,,,,,,,,,-65,15:20:16.901,
,,50602,3560,327,162,184,-1.001953,0.016602,0.091797,1.225000,-3.745000,-0.341250,4.768944,4.781792,-1.191214,,162,141,131,117,913,,,,,,,,,-65,15:20:16.909,
,,50603,3580,325,162,186,-0.998535,0.012695,0.092773,1.347500,-4.025000,-0.682500,4.768944,4.781792,-1.218808,,162,143,130,116,912,,,,,,,,,-65,15:20:16.934,
,,50604,3600,327,160,181,-0.993164,0.008789,0.096191,1.268750,-4.025000,-0.691250,4.768944,4.781792,-1.218808,,161,142,125,114,914,,,,,,,,,-65,15:20:16.963,
,,50605,3620,327,162,182,-0.992188,0.009766,0.096191,1.295000,-3.920000,-0.481250,4.768944,4.781792,-1.207274,,162,141,123,116,914,,,,,,,,,-65,15:20:16.963,
,,50606,3640,327,162,183,-0.991211,0.009766,0.099121,1.330000,-4.138750,-0.367500,4.768944,4.781792,-1.203186,,161,142,129,117,913,,,,,,,,,-65,15:20:16.991,
,,50607,3660,326,162,183,-0.996582,0.008301,0.095703,1.321250,-4.025000,-0.577500,4.768944,4.781792,-1.216472,,162,143,131,117,912,,,,,,,,,-65,15:20:17.022,
,,50608,3680,326,160,185,-0.996582,0.009766,0.097168,1.330000,-3.885000,-0.245000,4.768944,4.781792,-1.216326,,161,143,129,116,913,,,,,,,,,-65,15:20:17.023,
,,50609,3700,325,160,183,-0.994629,0.007324,0.093262,1.330000,-3.876250,-0.192500,4.768944,4.781792,-1.216326,,162,143,125,116,913,,,,,,,,,-65,15:20:17.054,
,,50610,3720,328,164,182,-0.993652,0.011230,0.095703,1.338750,-3.937500,-0.166250,4.768944,4.781792,-1.212968,,161,143,123,116,912,,,,,,,,,-65,15:20:17.084,
,,50611,3740,325,162,182,-0.995117,0.004395,0.093750,1.321250,-4.025000,-0.227500,4.768944,4.781792,-1.214136,,162,142,129,117,913,,,,,,,,,-65,15:20:17.084,
,,50612,3760,326,161,185,-0.994141,0.009277,0.096191,1.330000,-3.683750,-0.140000,4.768944,4.781792,-1.206106,,162,141,130,117,913,,,,,,,,,-65,15:20:17.114,
,,50613,3780,326,160,183,-0.998535,0.008301,0.094727,1.295000,-3.823750,-0.166250,4.768944,4.781792,-1.220852,,162,144,129,117,913,,,,,,,,,-65,15:20:17.144,
,,50614,3800,327,161,183,-0.995605,0.008789,0.094727,1.225000,-3.841250,-0.262500,4.768944,4.781792,-1.230342,,162,144,125,114,914,,,,,,,,,-65,15:20:17.145,
,,50615,3820,326,162,182,-0.996094,0.008789,0.092285,1.233750,-3.753750,-0.245000,4.768944,4.781792,-1.230342,,161,142,124,114,913,,,,,,,,,-65,15:20:17.174,
,,50616,3840,326,161,182,-0.993652,0.009277,0.095215,1.312500,-3.797500,-0.140000,4.768944,4.781792,-1.219684,,161,141,127,117,913,,,,,,,,,-65,15:20:17.233,
,,50617,3860,457,208,215,-0.994629,0.008789,0.095703,1.198750,-3.762500,-0.105000,4.768944,4.781792,-1.202894,,182,155,133,120,916,,,,,,,,,-65,15:20:17.235,
,,50618,3880,330,164,190,-0.995117,0.011230,0.092773,1.172500,-3.648750,-0.140000,4.768944,4.781792,-1.202894,,169,151,134,121,914,,,,,,,,,-65,15:20:17.235,
,,50619,3900,328,160,186,-0.990723,0.010742,0.090332,1.260000,-3.788750,-0.245000,4.768944,4.781792,-1.225816,,165,145,133,119,914,,,,,,,,,-65,15:20:17.263,
,,50620,3920,328,161,186,-0.994141,0.008789,0.097656,1.277500,-3.780000,-0.113750,4.768944,4.781792,-1.226984,,164,144,132,118,913,,,,,,,,,-65,15:20:17.264,
,,50621,3940,329,161,184,-0.996094,0.008789,0.095215,1.295000,-3.657500,-0.061250,4.768944,4.781792,-1.223772,,162,143,126,116,913,,,,,,,,,-65,15:20:17.291,
,,50622,3960,328,161,183,-0.997070,0.009766,0.095703,1.277500,-3.867500,-0.078750,4.768944,4.781792,-1.230488,,161,143,124,114,912,,,,,,,,,-65,15:20:17.322,
,,50623,3980,325,161,183,-0.993652,0.010254,0.091309,1.242500,-3.885000,-0.201250,4.768944,4.781792,-1.231218,,162,141,125,117,915,,,,,,,,,-65,15:20:17.323,
,,50624,4000,325,162,186,-0.991211,0.011719,0.094727,1.260000,-3.780000,-0.245000,4.768944,4.781792,-1.231218,,162,141,130,117,912,,,,,,,,,-65,15:20:17.352,
,,50625,4020,326,161,186,-0.990723,0.009277,0.095703,1.216250,-3.718750,-0.157500,4.768944,4.781792,-1.210924,,161,143,131,117,913,,,,,,,,,-65,15:20:17.381,
,,50626,4040,326,162,184,-0.993652,0.011230,0.093750,1.242500,-3.710000,-0.192500,4.768944,4.781792,-1.223480,,163,143,127,117,913,,,,,,,,,-65,15:20:17.390,
,,50627,4060,327,162,182,-0.999023,0.006348,0.095215,1.321250,-3.928750,-0.183750,4.768944,4.781792,-1.209318,,161,142,124,115,913,,,,,,,,,-65,15:20:17.411,
,,50628,4080,327,161,183,-0.993652,0.009277,0.094238,1.321250,-3.893750,-0.140000,4.768944,4.781792,-1.220706,,161,141,125,115,914,,,,,,,,,-65,15:20:17.442,
,,50629,4100,326,162,183,-0.993164,0.010254,0.096680,1.295000,-3.841250,-0.157500,4.768944,4.781792,-1.220706,,162,141,130,115,914,,,,,,,,,-65,15:20:17.442,
,,50630,4120,326,161,183,-0.995117,0.009277,0.092773,1.277500,-3.736250,-0.175000,4.768944,4.781792,-1.232678,,164,142,131,117,912,,,,,,,,,-65,15:20:17.502,
,,50631,4140,327,160,185,-0.999512,0.010742,0.091309,1.295000,-3.762500,-0.271250,4.768944,4.781792,-1.224502,,161,143,128,115,913,,,,,,,,,-65,15:20:17.532,
,,50632,4160,327,160,182,-0.994629,0.008789,0.094238,1.295000,-3.902500,-0.297500,4.768944,4.781792,-1.222896,,161,143,125,115,913,,,,,,,,,-65,15:20:17.564,
,,50633,4180,326,161,182,-0.991699,0.011230,0.093262,1.330000,-3.683750,-0.113750,4.768944,4.781792,-1.232094,,159,141,125,114,912,,,,,,,,,-65,15:20:17.564,
,,50634,4200,325,161,183,-0.993652,0.010742,0.094238,1.312500,-3.517500,-0.070000,4.768944,4.781792,-1.232094,,161,143,130,116,913,,,,,,,,,-65,15:20:17.565,
,,50635,4220,325,162,183,-0.995117,0.009277,0.092285,1.251250,-3.955000,-0.148750,4.768944,4.781792,-1.210486,,162,143,130,117,914,,,,,,,,,-65,15:20:17.565,
,,50636,4240,326,162,186,-0.998047,0.009766,0.095703,1.225000,-3.885000,-0.393750,4.768944,4.781792,-1.223042,,161,143,128,116,913,,,,,,,,,-65,15:20:17.594,
,,50637,4260,327,161,185,-0.997559,0.009766,0.092773,1.277500,-3.517500,-0.227500,4.768944,4.781792,-1.213260,,161,143,123,116,914,,,,,,,,,-65,15:20:17.623,
,,50638,4280,327,161,182,-0.995117,0.009277,0.090332,1.216250,-3.596250,-0.236250,4.768944,4.781792,-1.236620,,162,141,125,114,913,,,,,,,,,-65,15:20:17.624,
,,50639,4300,328,163,183,-0.992188,0.011719,0.096680,1.373750,-4.112500,-0.192500,4.768944,4.781792,-1.236620,,162,141,130,115,914,,,,,,,,,-65,15:20:17.651,
,,50640,4320,325,162,185,-0.993652,0.007812,0.099121,1.251250,-3.981250,-0.175000,4.768944,4.781792,-1.222312,,162,141,131,117,914,,,,,,,,,-65,15:20:17.682,
,,50641,4340,326,162,183,-0.994141,0.009766,0.095703,1.268750,-3.578750,-0.017500,4.768944,4.781792,-1.217494,,162,144,129,115,913,,,,,,,,,-65,15:20:17.692,
,,50642,4360,328,162,183,-0.996582,0.008789,0.091309,1.295000,-3.640000,-0.157500,4.768944,4.781792,-1.214720,,162,141,125,115,912,,,,,,,,,-65,15:20:17.714,
,,50643,4380,327,161,183,-0.992676,0.008789,0.091797,1.373750,-3.972500,-0.131250,4.768944,4.781792,-1.215596,,161,141,125,115,913,,,,,,,,,-65,15:20:17.744,
,,50644,4400,326,159,183,-0.992676,0.013184,0.094238,1.286250,-3.928750,-0.105000,4.768944,4.781792,-1.215596,,161,141,132,116,913,,,,,,,,,-65,15:20:17.744,
,,50645,4420,327,162,183,-0.997070,0.010742,0.095215,1.303750,-3.631250,-0.183750,4.768944,4.781792,-1.217932,,162,142,132,118,915,,,,,,,,,-65,15:20:17.774,
,,50646,4440,328,159,184,-1.000488,0.011719,0.087891,1.260000,-3.920000,-0.175000,4.768944,4.781792,-1.211946,,162,143,128,116,913,,,,,,,,,-65,15:20:17.804,
,,50647,4460,327,162,183,-0.994629,0.012207,0.096680,1.242500,-4.156250,-0.113750,4.768944,4.781792,-1.213114,,161,143,125,115,914,,,,,,,,,-65,15:20:17.805,
,,50648,4480,326,161,182,-0.992188,0.007324,0.099609,1.260000,-3.911250,-0.271250,4.768944,4.781792,-1.217202,,162,140,124,114,914,,,,,,,,,-65,15:20:17.834,
,,50649,4500,326,162,182,-0.991211,0.009766,0.095215,1.242500,-3.473750,-0.026250,4.768944,4.781792,-1.229904,,161,141,129,117,914,,,,,,,,,-65,15:20:17.893,
,,50650,4520,327,161,186,-0.996094,0.008789,0.091797,1.321250,-3.841250,-0.271250,4.768944,4.781792,-1.229904,,161,142,132,118,914,,,,,,,,,-65,15:20:17.894,
,,50651,4540,328,160,184,-0.999512,0.007812,0.092285,1.207500,-3.972500,-0.245000,4.768944,4.781792,-1.217932,,160,143,129,117,914,,,,,,,,,-65,15:20:17.895,
,,50652,4560,327,161,183,-0.994141,0.008789,0.093262,1.190000,-3.718750,-0.148750,4.768944,4.781792,-1.223480,,160,142,125,115,913,,,,,,,,,-65,15:20:17.924,
,,50653,4580,326,163,185,-0.994141,0.003906,0.091797,1.330000,-3.806250,0.087500,4.768944,4.781792,-1.209902,,162,144,130,117,914,,,,,,,,,-65,15:20:17.924,
,,50654,4600,326,161,183,-0.990234,0.008301,0.097656,1.365000,-4.025000,-0.105000,4.768944,4.781792,-1.222166,,160,143,125,114,913,,,,,,,,,-65,15:20:17.954,
,,50655,4620,328,161,182,-0.997070,0.008301,0.092773,1.312500,-3.806250,-0.262500,4.768944,4.781792,-1.226838,,160,141,125,113,912,,,,,,,,,-65,15:20:17.984,
,,50656,4640,328,162,182,-0.999512,0.008789,0.092285,1.233750,-3.745000,-0.140000,4.768944,4.781792,-1.223042,,161,141,128,116,913,,,,,,,,,-65,15:20:17.984,
,,50657,4660,327,160,183,-0.997559,0.012207,0.091309,1.233750,-3.701250,-0.218750,4.768944,4.781792,-1.223042,,163,142,130,119,913,,,,,,,,,-65,15:20:18.014,
,,50658,4680,326,160,183,-0.993652,0.008301,0.094727,1.295000,-3.850000,-0.227500,4.768944,4.781792,-1.211654,,161,143,129,117,914,,,,,,,,,-65,15:20:18.042,
,,50659,4700,326,162,182,-0.994141,0.008301,0.094238,1.373750,-3.745000,-0.043750,4.768944,4.781792,-1.218224,,161,143,125,114,914,,,,,,,,,-65,15:20:18.043,
,,50660,4720,326,160,182,-0.998047,0.009766,0.093262,1.382500,-3.762500,-0.017500,4.768944,4.781792,-1.221144,,161,141,123,114,912,,,,,,,,,-65,15:20:18.071,
,,50661,4740,325,161,182,-0.998047,0.008789,0.091309,1.268750,-3.806250,-0.367500,4.768944,4.781792,-1.221436,,160,140,127,117,914,,,,,,,,,-68,15:20:18.104,
,,50662,4760,325,160,183,-0.992676,0.008301,0.095215,1.268750,-3.893750,-0.280000,4.768944,4.781792,-1.221436,,162,141,132,116,914,,,,,,,,,-68,15:20:18.104,
,,50663,4780,326,159,185,-0.993164,0.010254,0.095215,1.373750,-3.727500,-0.166250,4.768944,4.781792,-1.215450,,162,143,131,116,913,,,,,,,,,-68,15:20:18.135,
,,50664,4800,327,160,183,-0.991211,0.009766,0.097168,1.365000,-3.990000,-0.078750,4.768944,4.781792,-1.221728,,162,143,126,115,913,,,,,,,,,-68,15:20:18.164,
,,50665,4820,327,162,183,-0.995605,0.011230,0.094238,1.216250,-3.841250,-0.175000,4.768944,4.781792,-1.229174,,161,142,124,115,912,,,,,,,,,-68,15:20:18.165,
,,50666,4840,327,161,183,-0.995117,0.009277,0.096680,1.260000,-3.797500,-0.175000,4.768944,4.781792,-1.220414,,161,142,127,115,914,,,,,,,,,-68,15:20:18.194,
,,50667,4860,320,159,179,-0.999512,0.009277,0.095215,1.242500,-3.701250,-0.122500,4.768944,4.781792,-1.220414,,157,140,123,114,914,,,,,,,,,-68,15:20:18.253,
,,50668,4880,326,161,181,-0.994141,0.008301,0.094238,1.373750,-3.823750,-0.113750,4.768944,4.781792,-1.213260,,160,140,125,114,912,,,,,,,,,-68,15:20:18.269,
,,50669,4900,328,161,183,-0.995605,0.006836,0.092285,1.277500,-3.797500,-0.148750,4.768944,4.781792,-1.216910,,160,143,131,115,913,,,,,,,,,-68,15:20:18.270,
,,50670,4920,328,160,184,-0.991211,0.013184,0.093750,1.295000,-3.806250,-0.078750,4.768944,4.781792,-1.221290,,163,141,131,116,914,,,,,,,,,-68,15:20:18.284,
,,50671,4940,326,162,184,-0.996094,0.012207,0.094727,1.312500,-3.797500,-0.105000,4.768944,4.781792,-1.221290,,162,144,126,115,912,,,,,,,,,-68,15:20:18.284,
,,50672,4960,327,161,182,-0.993652,0.011230,0.094727,1.303750,-3.937500,-0.096250,4.768944,4.781792,-1.222166,,162,142,122,115,914,,,,,,,,,-68,15:20:18.314,
,,50673,4980,326,162,181,-0.992188,0.010742,0.096191,1.382500,-4.007500,-0.122500,4.768944,4.781792,-1.218224,,160,141,127,115,913,,,,,,,,,-68,15:20:18.342,
,,50674,5000,326,162,184,-0.991699,0.009277,0.097656,1.225000,-3.990000,-0.175000,4.768944,4.781792,-1.218516,,161,141,131,117,914,,,,,,,,,-68,15:20:18.344,
,,50675,5020,326,161,185,-0.992676,0.008301,0.097656,1.312500,-3.920000,-0.192500,4.768944,4.781792,-1.209902,,162,144,132,117,912,,,,,,,,,-68,15:20:18.374,
,,50676,5040,325,163,183,-0.995117,0.007324,0.095703,1.268750,-3.710000,-0.113750,4.768944,4.781792,-1.209902,,161,144,127,116,912,,,,,,,,,-68,15:20:18.402,
,,50677,5060,325,160,183,-0.992188,0.008789,0.095703,1.330000,-3.832500,-0.087500,4.768944,4.781792,-1.212092,,160,142,126,115,913,,,,,,,,,-68,15:20:18.411,
,,50678,5080,327,162,181,-0.991699,0.010254,0.094238,1.303750,-3.788750,-0.113750,4.768944,4.781792,-1.211946,,162,141,126,116,911,,,,,,,,,-68,15:20:18.434,
,,50679,5100,327,162,183,-0.992188,0.011230,0.097168,1.303750,-3.858750,-0.105000,4.768944,4.781792,-1.208150,,161,140,131,117,912,,,,,,,,,-68,15:20:18.464,
,,50680,5120,326,161,185,-1.000000,0.007812,0.093750,1.225000,-3.762500,-0.096250,4.768944,4.781792,-1.210778,,161,143,132,118,913,,,,,,,,,-68,15:20:18.494,
,,50681,5140,326,161,183,-1.002441,0.013672,0.097168,1.277500,-3.981250,-0.201250,4.768944,4.781792,-1.210778,,161,145,129,116,913,,,,,,,,,-68,15:20:18.494,
,,50682,5160,326,162,182,-0.990723,0.011230,0.093262,1.260000,-3.613750,-0.157500,4.768944,4.781792,-1.210340,,161,144,123,115,913,,,,,,,,,-68,15:20:18.523,
,,50683,5180,326,162,182,-0.992188,0.009766,0.097656,1.356250,-3.832500,-0.070000,4.768944,4.781792,-1.207274,,160,141,128,117,913,,,,,,,,,-68,15:20:18.524,
,,50684,5200,326,159,183,-0.990723,0.007324,0.097168,1.251250,-3.920000,-0.218750,4.768944,4.781792,-1.214428,,162,141,130,116,914,,,,,,,,,-68,15:20:18.552,
,,50685,5220,327,161,184,-1.000488,0.007812,0.095215,1.277500,-3.780000,-0.271250,4.768944,4.781792,-1.219684,,162,142,132,117,914,,,,,,,,,-68,15:20:18.582,
,,50686,5240,325,161,183,-0.998535,0.008301,0.091309,1.286250,-3.701250,-0.210000,4.768944,4.781792,-1.213990,,162,142,127,116,913,,,,,,,,,-68,15:20:18.592,
,,50687,5260,328,161,184,-0.993652,0.011230,0.092773,1.295000,-3.893750,-0.122500,4.768944,4.781792,-1.213990,,161,143,124,113,912,,,,,,,,,-68,15:20:18.614,
,,50688,5280,327,162,181,-0.993164,0.009766,0.096191,1.260000,-3.823750,-0.096250,4.768944,4.781792,-1.212092,,159,142,125,115,913,,,,,,,,,-68,15:20:18.643,
,,50689,5300,326,162,182,-0.992188,0.007812,0.095215,1.330000,-3.858750,-0.140000,4.768944,4.781792,-1.216180,,161,142,131,116,913,,,,,,,,,-68,15:20:18.644,
,,50690,5320,325,163,184,-0.997070,0.008301,0.092773,1.321250,-3.928750,-0.201250,4.768944,4.781792,-1.200266,,162,142,131,117,914,,,,,,,,,-68,15:20:18.671,
,,50691,5340,326,162,184,-0.995605,0.009277,0.096680,1.330000,-3.841250,-0.140000,4.768944,4.781792,-1.203332,,161,145,128,116,911,,,,,,,,,-68,15:20:18.734,
,,50692,5360,328,161,182,-0.994629,0.010742,0.095215,1.391250,-3.570000,-0.017500,4.768944,4.781792,-1.203332,,162,143,125,114,912,,,,,,,,,-68,15:20:18.734,
,,50693,5380,328,163,182,-0.991211,0.010742,0.095215,1.356250,-3.806250,-0.131250,4.768944,4.781792,-1.208150,,162,140,124,115,912,,,,,,,,,-68,15:20:18.735,
,,50694,5400,326,162,181,-0.995117,0.008301,0.094727,1.295000,-3.858750,-0.061250,4.768944,4.781792,-1.214574,,160,142,129,115,912,,,,,,,,,-68,15:20:18.763,
,,50695,5420,327,162,185,-0.995605,0.008789,0.092773,1.303750,-3.683750,0.087500,4.768944,4.781792,-1.205668,,161,144,130,117,913,,,,,,,,,-68,15:20:18.764,
,,50696,5440,326,162,183,-0.997070,0.007324,0.093750,1.435000,-3.097500,0.682500,4.768944,4.781792,-1.194572,,162,143,129,116,913,,,,,,,,,-68,15:20:18.791,
,,50697,5460,326,161,183,-0.993652,0.009277,0.097168,1.321250,-3.736250,0.131250,4.768944,4.781792,-1.194572,,161,141,126,115,913,,,,,,,,,-68,15:20:18.883,
,,50698,5480,326,162,184,-0.995605,0.009766,0.095703,1.286250,-3.587500,-0.105000,4.768944,4.781792,-1.204208,,160,142,125,114,913,,,,,,,,,-68,15:20:18.885,
,,50699,5500,327,163,183,-0.998047,0.009277,0.091309,1.443750,-3.788750,-0.271250,4.768944,4.781792,-1.200996,,162,142,130,116,913,,,,,,,,,-68,15:20:18.885,
,,50700,5520,328,162,184,-1.002441,0.011230,0.097168,1.190000,-4.252500,-0.245000,4.768944,4.781792,-1.206106,,162,144,130,117,913,,,,,,,,,-68,15:20:18.886,
,,50701,5540,327,159,185,-0.998535,0.007812,0.094727,1.330000,-3.806250,-0.105000,4.768944,4.781792,-1.205668,,162,144,127,116,914,,,,,,,,,-68,15:20:18.887,
,,50702,5560,327,162,183,-0.992676,0.013672,0.095703,1.321250,-3.508750,-0.087500,4.768944,4.781792,-1.205668,,161,143,126,115,914,,,,,,,,,-68,15:20:18.911,
,,50703,5580,327,162,184,-0.992188,0.012207,0.094727,1.356250,-3.648750,0.140000,4.768944,4.781792,-1.200120,,161,142,125,116,913,,,,,,,,,-68,15:20:18.941,
,,50704,5600,326,163,182,-0.995605,0.010742,0.092773,1.190000,-3.911250,-0.122500,4.768944,4.781792,-1.201580,,161,143,127,116,914,,,,,,,,,-68,15:20:18.951,
,,50705,5620,327,161,183,-0.994141,0.010742,0.091797,1.260000,-3.876250,-0.210000,4.768944,4.781792,-1.208442,,164,144,130,117,914,,,,,,,,,-68,15:20:18.973,
,,50706,5640,325,162,183,-1.000977,0.010254,0.094238,1.242500,-3.815000,-0.087500,4.768944,4.781792,-1.192528,,162,143,129,117,913,,,,,,,,,-68,15:20:19.002,
,,50707,5660,326,162,182,-0.992188,0.009277,0.092285,1.365000,-3.552500,0.183750,4.768944,4.781792,-1.192528,,162,141,123,115,913,,,,,,,,,-68,15:20:19.003,
,,50708,5680,326,162,182,-0.996582,0.010254,0.093750,1.426250,-3.622500,0.148750,4.768944,4.781792,-1.204208,,161,141,126,114,914,,,,,,,,,-68,15:20:19.032,
,,50709,5700,326,162,184,-0.993164,0.011719,0.092285,1.260000,-3.797500,-0.166250,4.768944,4.781792,-1.197492,,160,142,129,117,912,,,,,,,,,-68,15:20:19.063,
,,50710,5720,327,162,184,-0.998535,0.010742,0.091797,1.330000,-3.701250,-0.043750,4.768944,4.781792,-1.197200,,162,144,131,117,913,,,,,,,,,-68,15:20:19.064,
,,50711,5740,326,161,185,-0.996094,0.010254,0.088379,1.251250,-3.876250,0.140000,4.768944,4.781792,-1.188878,,161,143,130,116,914,,,,,,,,,-68,15:20:19.091,
,,50712,5760,326,161,185,-0.994629,0.011230,0.094727,1.242500,-3.841250,-0.035000,4.768944,4.781792,-1.202310,,161,142,126,116,914,,,,,,,,,-68,15:20:19.122,
,,50713,5780,326,161,184,-0.993164,0.008789,0.094238,1.251250,-3.631250,-0.175000,4.768944,4.781792,-1.202310,,161,141,125,116,914,,,,,,,,,-68,15:20:19.124,
,,50714,5800,327,162,183,-0.995605,0.010742,0.091309,1.295000,-3.508750,-0.376250,4.768944,4.781792,-1.191360,,162,143,126,116,914,,,,,,,,,-68,15:20:19.154,
,,50715,5820,328,162,182,-0.995605,0.010254,0.096680,1.085000,-4.287500,-0.446250,4.768944,4.781792,-1.191360,,160,141,125,115,912,,,,,,,,,-68,15:20:19.182,
,,50716,5840,328,162,183,-0.996582,0.009766,0.095215,1.233750,-3.666250,-0.183750,4.768944,4.781792,-1.187564,,161,141,128,117,913,,,,,,,,,-68,15:20:19.192,
,,50717,5860,456,206,213,-0.994141,0.012695,0.095215,1.268750,-3.736250,-0.183750,4.768944,4.781792,-1.189900,,181,155,135,123,915,,,,,,,,,-68,15:20:19.213,
,,50718,5880,329,164,191,-0.993164,0.011230,0.093750,1.286250,-3.640000,-0.140000,4.768944,4.781792,-1.189900,,169,149,133,119,915,,,,,,,,,-68,15:20:19.244,
,,50719,5900,329,162,186,-0.994141,0.010742,0.093750,1.391250,-3.858750,0.052500,4.768944,4.781792,-1.199098,,163,145,132,119,913,,,,,,,,,-68,15:20:19.244,
,,50720,5920,328,162,182,-0.993164,0.011230,0.096680,1.452500,-3.465000,0.236250,4.768944,4.781792,-1.196324,,163,145,130,117,912,,,,,,,,,-68,15:20:19.272,
,,50721,5940,327,162,184,-1.000977,0.016602,0.089844,1.855000,-2.896250,0.315000,4.768944,4.781792,-1.187856,,161,144,128,116,913,,,,,,,,,-68,15:20:19.301,
,,50722,5960,328,161,183,-0.997559,0.013184,0.087891,1.023750,-3.998750,-0.122500,4.768944,4.781792,-1.192528,,161,141,125,115,912,,,,,,,,,-68,15:20:19.310,
,,50723,5980,327,163,183,-0.991211,0.009277,0.096680,0.612500,-5.048750,-0.525000,4.768944,4.781792,-1.196762,,161,142,128,117,913,,,,,,,,,-68,15:20:19.331,
,,50724,6000,328,163,186,-0.991211,0.012207,0.097656,1.277500,-3.963750,-0.175000,4.768944,4.781792,-1.196762,,162,143,129,117,913,,,,,,,,,-68,15:20:19.364,
,,50725,6020,327,161,184,-0.994629,0.010254,0.094238,1.478750,-3.185000,0.175000,4.768944,4.781792,-1.190484,,161,144,130,117,914,,,,,,,,,-68,15:20:19.364,
,,50726,6040,328,162,184,-0.997070,0.010742,0.089844,1.513750,-3.543750,0.166250,4.768944,4.781792,-1.195740,,162,144,127,114,913,,,,,,,,,-68,15:20:19.394,
,,50727,6060,327,162,182,-0.993164,0.010742,0.089355,1.076250,-3.990000,-0.017500,4.768944,4.781792,-1.184936,,162,141,126,115,914,,,,,,,,,-68,15:20:19.422,
,,50728,6080,327,162,183,-0.997070,0.011719,0.091309,1.015000,-4.252500,-0.341250,4.768944,4.781792,-1.196762,,162,141,127,115,914,,,,,,,,,-68,15:20:19.424,
,,50729,6100,326,163,184,-1.002441,0.015137,0.093262,1.251250,-3.753750,-0.402500,4.768944,4.781792,-1.196762,,161,141,130,117,912,,,,,,,,,-68,15:20:19.453,
,,50730,6120,326,161,184,-1.001953,0.011230,0.091797,1.181250,-3.430000,-0.367500,4.768944,4.781792,-1.184498,,162,142,130,116,913,,,,,,,,,-68,15:20:19.482,
,,50731,6140,327,162,184,-0.995117,0.009277,0.093750,1.242500,-3.920000,-0.393750,4.768944,4.781792,-1.197784,,163,144,126,116,913,,,,,,,,,-68,15:20:19.483,
,,50732,6160,327,161,184,-0.993652,0.011719,0.093262,1.216250,-4.191250,-0.201250,4.768944,4.781792,-1.199390,,162,142,125,113,913,,,,,,,,,-68,15:20:19.512,
,,50733,6180,326,163,183,-0.993164,0.013672,0.095215,1.408750,-4.077500,0.026250,4.768944,4.781792,-1.192528,,162,144,128,115,914,,,,,,,,,-68,15:20:19.541,
,,50734,6200,326,163,184,-0.995605,0.008301,0.098633,1.391250,-3.701250,0.052500,4.768944,4.781792,-1.192528,,163,142,130,115,914,,,,,,,,,-68,15:20:19.550,
,,50735,6220,328,163,185,-0.998047,0.007812,0.092285,1.286250,-3.797500,0.052500,4.768944,4.781792,-1.207128,,163,146,130,117,912,,,,,,,,,-68,15:20:19.572,
,,50736,6240,326,163,185,-0.994141,0.013184,0.093750,1.286250,-3.727500,-0.236250,4.768944,4.781792,-1.191068,,162,142,127,115,914,,,,,,,,,-68,15:20:19.602,
,,50737,6260,327,162,182,-0.991211,0.011230,0.097656,1.277500,-3.806250,-0.157500,4.768944,4.781792,-1.207566,,161,143,126,115,912,,,,,,,,,-68,15:20:19.611,
,,50738,6280,326,161,182,-0.994629,0.009766,0.092773,1.303750,-3.823750,-0.148750,4.768944,4.781792,-1.206690,,162,141,127,116,913,,,,,,,,,-68,15:20:19.634,
,,50739,6300,325,162,183,-0.995605,0.010742,0.094238,1.365000,-3.648750,0.236250,4.768944,4.781792,-1.206690,,162,142,128,116,913,,,,,,,,,-68,15:20:19.663,
,,50740,6320,327,162,183,-0.996094,0.005859,0.096191,1.373750,-3.710000,0.271250,4.768944,4.781792,-1.193550,,160,144,130,115,914,,,,,,,,,-68,15:20:19.664,
,,50741,6340,327,162,183,-0.994629,0.010742,0.095215,1.268750,-3.876250,0.113750,4.768944,4.781792,-1.186250,,163,143,127,115,914,,,,,,,,,-68,15:20:19.692,
,,50742,6360,327,161,184,-0.996582,0.010742,0.093750,1.216250,-3.858750,0.463750,4.768944,4.781792,-1.182746,,161,141,128,115,913,,,,,,,,,-68,15:20:19.721,
,,50743,6380,326,161,183,-0.990723,0.014160,0.094238,1.478750,-2.625000,1.365000,4.768944,4.781792,-1.183476,,160,141,127,114,915,,,,,,,,,-68,15:20:19.723,
,,50744,6400,328,162,184,-1.000000,0.015137,0.092773,1.373750,-3.290000,1.225000,4.768944,4.781792,-1.167270,,161,142,129,115,913,,,,,,,,,-68,15:20:19.751,
,,50745,6420,327,162,183,-0.995605,0.010254,0.090820,1.356250,-3.788750,-0.052500,4.768944,4.781792,-1.167270,,162,143,130,117,914,,,,,,,,,-68,15:20:19.781,
,,50746,6440,327,162,185,-0.994629,0.010254,0.090820,1.093750,-4.208750,0.052500,4.768944,4.781792,-1.156758,,162,141,127,117,913,,,,,,,,,-68,15:20:19.782,
,,50747,6460,325,162,183,-0.995117,0.010742,0.096680,1.163750,-4.217500,0.061250,4.768944,4.781792,-1.150188,,160,141,127,116,913,,,,,,,,,-68,15:20:19.812,
,,50748,6480,325,161,183,-0.994629,0.010742,0.094238,1.190000,-3.990000,-0.288750,4.768944,4.781792,-1.152816,,161,142,125,116,915,,,,,,,,,-68,15:20:19.844,
,,50749,6500,327,163,183,-0.996582,0.008789,0.093262,1.295000,-4.112500,-0.227500,4.768944,4.781792,-1.166102,,161,143,127,117,913,,,,,,,,,-68,15:20:19.844,
,,50750,6520,327,162,184,-0.996582,0.012695,0.094727,1.303750,-3.858750,-0.113750,4.768944,4.781792,-1.166102,,161,144,129,116,914,,,,,,,,,-68,15:20:19.874,
,,50751,6540,327,161,184,-0.995605,0.012695,0.090332,1.373750,-3.780000,-0.192500,4.768944,4.781792,-1.153546,,162,142,129,115,913,,,,,,,,,-68,15:20:19.933,
,,50752,6560,327,163,183,-0.992188,0.013672,0.094727,1.312500,-4.042500,-0.236250,4.768944,4.781792,-1.156758,,161,142,125,116,913,,,,,,,,,-68,15:20:19.934,
,,50753,6580,328,162,183,-0.998047,0.012695,0.092773,1.286250,-3.858750,-0.113750,4.768944,4.781792,-1.153984,,160,141,127,114,913,,,,,,,,,-68,15:20:19.934,
,,50754,6600,326,162,183,-0.997070,0.012207,0.090820,1.303750,-3.832500,-0.201250,4.768944,4.781792,-1.153108,,161,141,130,116,914,,,,,,,,,-68,15:20:19.964,
,,50755,6620,326,162,183,-0.995605,0.008789,0.092773,1.286250,-3.885000,-0.210000,4.768944,4.781792,-1.153108,,161,144,130,116,913,,,,,,,,,-68,15:20:19.964,
,,50756,6640,328,162,183,-0.996094,0.011719,0.090820,1.391250,-3.780000,-0.008750,4.768944,4.781792,-1.170190,,161,145,128,117,914,,,,,,,,,-68,15:20:20.023,
,,50757,6660,328,160,182,-0.995605,0.008789,0.093750,1.338750,-3.666250,-0.105000,4.768944,4.781792,-1.159970,,162,141,125,116,912,,,,,,,,,-68,15:20:20.024,
,,50758,6680,326,162,184,-0.995117,0.010742,0.093262,1.251250,-3.736250,-0.341250,4.768944,4.781792,-1.161138,,161,141,126,116,912,,,,,,,,,-68,15:20:20.025,
,,50759,6700,326,162,184,-0.996582,0.009277,0.091797,1.277500,-3.876250,-0.175000,4.768944,4.781792,-1.166832,,161,142,128,117,913,,,,,,,,,-68,15:20:20.053,
,,50760,6720,327,162,183,-0.994629,0.011719,0.093750,1.295000,-4.103750,-0.227500,4.768944,4.781792,-1.166832,,162,143,128,117,914,,,,,,,,,-68,15:20:20.082,
,,50761,6740,327,161,183,-0.996094,0.012207,0.090332,1.295000,-3.780000,-0.140000,4.768944,4.781792,-1.155590,,161,143,130,117,914,,,,,,,,,-68,15:20:20.082,
,,50762,6760,326,161,183,-0.996582,0.010742,0.090332,1.277500,-3.762500,-0.122500,4.768944,4.781792,-1.154860,,162,143,127,116,913,,,,,,,,,-68,15:20:20.111,
,,50763,6780,328,161,183,-0.994629,0.013184,0.092773,1.286250,-3.963750,-0.087500,4.768944,4.781792,-1.161722,,161,141,125,114,913,,,,,,,,,-68,15:20:20.142,
,,50764,6800,325,161,183,-0.995605,0.014648,0.093262,1.277500,-3.911250,-0.061250,4.768944,4.781792,-1.164788,,162,142,129,116,913,,,,,,,,,-68,15:20:20.152,
,,50765,6820,328,161,183,-0.995605,0.012207,0.094727,1.277500,-3.841250,-0.192500,4.768944,4.781792,-1.164788,,162,143,129,118,913,,,,,,,,,-68,15:20:20.174,
,,50766,6840,326,160,183,-0.997559,0.011719,0.092773,1.260000,-3.657500,-0.140000,4.768944,4.781792,-1.166540,,162,143,129,117,913,,,,,,,,,-68,15:20:20.202,
,,50767,6860,320,159,179,-0.996094,0.009766,0.092285,1.268750,-3.465000,-0.218750,4.768944,4.781792,-1.166394,,157,140,123,114,914,,,,,,,,,-68,15:20:20.211,
,,50768,6880,325,162,181,-0.988770,0.013184,0.097656,1.303750,-3.762500,-0.070000,4.768944,4.781792,-1.151502,,160,140,127,115,916,,,,,,,,,-68,15:20:20.234,
,,50769,6900,326,161,182,-0.992676,0.013184,0.097168,1.268750,-3.893750,-0.236250,4.768944,4.781792,-1.150918,,159,144,129,115,912,,,,,,,,,-68,15:20:20.263,
,,50770,6920,325,161,183,-0.995117,0.011719,0.089844,1.172500,-3.718750,-0.481250,4.768944,4.781792,-1.149896,,162,144,131,116,916,,,,,,,,,-68,15:20:20.263,
,,50771,6940,326,162,184,-0.999023,0.013184,0.089355,1.268750,-3.850000,-0.367500,4.768944,4.781792,-1.149896,,161,143,127,114,913,,,,,,,,,-68,15:20:20.291,
,,50772,6960,328,162,183,-0.995117,0.009766,0.092285,1.286250,-3.710000,-0.201250,4.768944,4.781792,-1.159240,,161,141,125,115,913,,,,,,,,,-68,15:20:20.322,
,,50773,6980,325,162,183,-0.995117,0.011230,0.089844,1.312500,-3.640000,-0.140000,4.768944,4.781792,-1.152816,,161,141,129,115,912,,,,,,,,,-68,15:20:20.323,
,,50774,7000,328,161,182,-0.996094,0.012695,0.094727,1.321250,-3.710000,-0.087500,4.768944,4.781792,-1.160700,,162,143,129,118,914,,,,,,,,,-68,15:20:20.351,
,,50775,7020,326,162,185,-0.996094,0.010254,0.090332,1.216250,-4.243750,-0.385000,4.768944,4.781792,-1.152816,,161,143,130,115,912,,,,,,,,,-68,15:20:20.382,
,,50776,7040,325,163,184,-0.997559,0.010254,0.091797,1.260000,-4.112500,-0.210000,4.768944,4.781792,-1.152816,,162,143,128,116,913,,,,,,,,,-68,15:20:20.383,
,,50777,7060,325,161,183,-0.995117,0.010254,0.092773,1.347500,-3.727500,-0.113750,4.768944,4.781792,-1.155298,,161,141,125,114,913,,,,,,,,,-68,15:20:20.414,
,,50778,7080,328,163,184,-0.996582,0.010742,0.089844,1.312500,-3.438750,0.245000,4.768944,4.781792,-1.150772,,161,142,128,116,914,,,,,,,,,-68,15:20:20.442,
,,50779,7100,327,161,182,-0.991699,0.017090,0.094727,2.152500,-0.796250,0.367500,4.768944,4.781792,-1.167562,,162,141,129,117,914,,,,,,,,,-68,15:20:20.451,
,,50780,7120,326,162,184,-0.996582,0.011719,0.092773,1.995000,-2.240000,-0.052500,4.768944,4.781792,-1.164642,,161,142,130,117,914,,,,,,,,,-68,15:20:20.474,
,,50781,7140,327,162,184,-1.003418,0.020020,0.087402,2.231250,-1.942500,0.455000,4.768944,4.781792,-1.162014,,161,143,126,116,913,,,,,,,,,-68,15:20:20.503,
,,50782,7160,327,162,182,-0.996094,0.007324,0.090820,1.566250,-3.202500,0.533750,4.768944,4.781792,-1.162014,,162,141,125,116,914,,,,,,,,,-68,15:20:20.504,
,,50783,7180,326,162,183,-0.992188,0.012695,0.089355,0.638750,-4.305000,1.067500,4.768944,4.781792,-1.146392,,161,142,127,116,913,,,,,,,,,-68,15:20:20.531,
,,50784,7200,325,164,184,-0.996094,0.012207,0.087402,0.455000,-4.970000,0.726250,4.768944,4.781792,-1.143618,,161,142,130,116,914,,,,,,,,,-68,15:20:20.562,
,,50785,7220,327,162,184,-1.000977,0.012695,0.094238,0.665000,-4.768750,0.210000,4.768944,4.781792,-1.146976,,164,144,131,117,914,,,,,,,,,-68,15:20:20.564,
,,50786,7240,326,162,184,-1.001465,0.019043,0.088867,1.303750,-3.596250,0.525000,4.768944,4.781792,-1.144932,,164,141,128,117,913,,,,,,,,,-68,15:20:20.594,
,,50787,7260,328,162,183,-0.996094,0.013672,0.091797,1.575000,-3.010000,-0.288750,4.768944,4.781792,-1.144932,,162,142,127,116,913,,,,,,,,,-68,15:20:20.622,
,,50788,7280,326,162,182,-0.993652,0.014648,0.086914,2.003750,-2.292500,-0.078750,4.768944,4.781792,-1.142304,,161,141,126,116,914,,,,,,,,,-68,15:20:20.624,
,,50789,7300,327,162,184,-1.001953,0.021973,0.086426,1.443750,-4.068750,-0.157500,4.768944,4.781792,-1.150042,,162,142,130,116,913,,,,,,,,,-68,15:20:20.714,
,,50790,7320,327,161,184,-1.002441,0.020508,0.086426,0.542500,-5.136250,-0.542500,4.768944,4.781792,-1.134128,,161,144,129,117,912,,,,,,,,,-68,15:20:20.715,
,,50791,7340,328,162,183,-0.995117,0.009277,0.094238,0.787500,-4.655000,-0.971250,4.768944,4.781792,-1.144056,,162,142,128,115,912,,,,,,,,,-68,15:20:20.715,
,,50792,7360,327,162,184,-1.000977,0.017578,0.088867,1.846250,-3.036250,0.008750,4.768944,4.781792,-1.144056,,161,143,126,115,913,,,,,,,,,-68,15:20:20.716,
,,50793,7380,326,162,184,-0.998047,0.011230,0.090820,0.638750,-5.188750,-0.525000,4.768944,4.781792,-1.144348,,162,142,127,114,912,,,,,,,,,-68,15:20:20.744,
,,50794,7400,325,161,183,-0.995117,0.011230,0.089844,0.490000,-5.267500,-0.227500,4.768944,4.781792,-1.158218,,161,142,131,117,914,,,,,,,,,-68,15:20:20.744,
,,50795,7420,327,162,183,-0.996582,0.013184,0.095703,1.190000,-4.401250,0.192500,4.768944,4.781792,-1.152524,,162,143,132,118,913,,,,,,,,,-68,15:20:20.772,
,,50796,7440,328,163,183,-0.997559,0.013672,0.093262,1.286250,-3.675000,-0.157500,4.768944,4.781792,-1.151356,,162,144,129,115,914,,,,,,,,,-68,15:20:20.802,
,,50797,7460,328,163,183,-1.000488,0.013672,0.090820,1.076250,-4.182500,-0.446250,4.768944,4.781792,-1.151356,,161,141,124,117,914,,,,,,,,,-68,15:20:20.812,
,,50798,7480,326,162,183,-0.994629,0.009277,0.088867,1.216250,-4.025000,-0.560000,4.768944,4.781792,-1.138946,,163,144,126,116,914,,,,,,,,,-68,15:20:20.833,
,,50799,7500,327,162,183,-0.996094,0.011230,0.089355,1.286250,-3.963750,-0.245000,4.768944,4.781792,-1.155736,,160,142,129,117,914,,,,,,,,,-68,15:20:20.862,
,,50800,7520,326,161,185,-0.996094,0.015625,0.094238,1.400000,-4.130000,-0.026250,4.768944,4.781792,-1.150772,,162,143,130,116,913,,,,,,,,,-68,15:20:20.863,
,,50801,7540,328,162,185,-0.995117,0.013184,0.089844,1.426250,-4.033750,0.035000,4.768944,4.781792,-1.147852,,164,142,127,116,913,,,,,,,,,-68,15:20:20.892,
,,50802,7560,327,161,183,-0.999023,0.014160,0.090332,1.312500,-3.867500,-0.236250,4.768944,4.781792,-1.147852,,162,141,125,116,913,,,,,,,,,-68,15:20:20.921,
,,50803,7580,326,160,183,-1.000000,0.014160,0.093750,1.321250,-3.745000,-0.201250,4.768944,4.781792,-1.146392,,162,141,125,114,913,,,,,,,,,-68,15:20:20.923,
,,50804,7600,326,161,184,-0.996582,0.009766,0.090332,1.242500,-3.605000,-0.253750,4.768944,4.781792,-1.145808,,162,143,129,117,913,,,,,,,,,-68,15:20:20.951,
,,50805,7620,325,160,183,-0.996582,0.014160,0.090820,1.373750,-3.867500,-0.078750,4.768944,4.781792,-1.144786,,162,142,130,116,915,,,,,,,,,-68,15:20:20.981,
,,50806,7640,326,160,183,-0.998535,0.012207,0.090820,1.321250,-4.033750,-0.113750,4.768944,4.781792,-1.156466,,161,144,130,116,914,,,,,,,,,-68,15:20:20.983,
,,50807,7660,326,162,182,-0.991699,0.015137,0.093262,1.330000,-3.946250,0.000000,4.768944,4.781792,-1.145808,,161,142,125,116,911,,,,,,,,,-68,15:20:21.011,
,,50808,7680,325,162,183,-0.998047,0.011719,0.090332,1.356250,-3.403750,0.376250,4.768944,4.781792,-1.145808,,161,142,125,115,913,,,,,,,,,-66,15:20:21.104,
,,50809,7700,325,162,183,-0.995605,0.011719,0.092285,1.303750,-4.147500,-0.131250,4.768944,4.781792,-1.131500,,161,142,129,116,914,,,,,,,,,-66,15:20:21.105,
,,50810,7720,328,161,183,-0.997070,0.014648,0.094238,1.347500,-4.357500,-0.262500,4.768944,4.781792,-1.138508,,161,143,131,115,914,,,,,,,,,-66,15:20:21.106,
,,50811,7740,326,162,182,-0.996582,0.010742,0.090332,1.251250,-3.841250,-0.078750,4.768944,4.781792,-1.130332,,162,142,130,116,914,,,,,,,,,-66,15:20:21.107,
,,50812,7760,327,161,183,-0.994141,0.014160,0.094238,1.338750,-3.683750,-0.157500,4.768944,4.781792,-1.138362,,162,143,125,116,912,,,,,,,,,-66,15:20:21.107,
,,50813,7780,326,162,181,-0.995117,0.013672,0.095215,1.286250,-3.832500,-0.201250,4.768944,4.781792,-1.138362,,162,141,125,114,913,,,,,,,,,-66,15:20:21.134,
,,50814,7800,327,162,185,-0.997559,0.012695,0.090332,1.295000,-3.622500,-0.166250,4.768944,4.781792,-1.135734,,162,142,128,116,912,,,,,,,,,-66,15:20:21.164,
,,50815,7820,325,161,184,-0.999512,0.015137,0.092773,1.321250,-3.587500,-0.113750,4.768944,4.781792,-1.140990,,162,142,129,116,913,,,,,,,,,-66,15:20:21.165,
,,50816,7840,327,161,183,-0.992676,0.013672,0.089844,1.312500,-3.841250,-0.113750,4.768944,4.781792,-1.133398,,162,143,130,116,913,,,,,,,,,-66,15:20:21.223,
,,50817,7860,457,209,213,-0.995605,0.014648,0.093262,1.365000,-4.270000,-0.087500,4.768944,4.781792,-1.138800,,182,155,136,122,915,,,,,,,,,-66,15:20:21.224,
,,50818,7880,330,164,191,-0.996582,0.011230,0.091797,1.347500,-4.130000,-0.157500,4.768944,4.781792,-1.130624,,170,149,133,120,914,,,,,,,,,-66,15:20:21.225,
,,50819,7900,327,163,187,-0.999512,0.011230,0.090820,1.338750,-3.806250,-0.131250,4.768944,4.781792,-1.130624,,164,145,133,119,913,,,,,,,,,-66,15:20:21.253,
,,50820,7920,328,162,185,-0.997559,0.012207,0.092285,1.286250,-3.780000,-0.227500,4.768944,4.781792,-1.130040,,163,144,130,118,914,,,,,,,,,-66,15:20:21.281,
,,50821,7940,326,161,183,-0.997070,0.013184,0.088867,1.286250,-3.963750,-0.218750,4.768944,4.781792,-1.138946,,163,143,128,117,912,,,,,,,,,-66,15:20:21.283,
,,50822,7960,326,162,182,-0.996582,0.012207,0.094238,1.347500,-3.876250,-0.105000,4.768944,4.781792,-1.138070,,161,143,125,115,912,,,,,,,,,-66,15:20:21.311,
,,50823,7980,326,161,183,-0.995605,0.012695,0.090820,1.277500,-3.657500,-0.043750,4.768944,4.781792,-1.131938,,162,141,128,114,914,,,,,,,,,-66,15:20:21.371,
,,50824,8000,328,162,183,-1.000488,0.014160,0.091797,1.251250,-3.753750,-0.131250,4.768944,4.781792,-1.131938,,162,144,130,116,912,,,,,,,,,-66,15:20:21.385,
,,50825,8020,327,161,185,-0.997070,0.011230,0.092773,1.251250,-3.850000,-0.297500,4.768944,4.781792,-1.137048,,160,144,130,117,912,,,,,,,,,-66,15:20:21.404,
,,50826,8040,325,161,184,-1.001465,0.016602,0.092773,1.277500,-3.876250,-0.157500,4.768944,4.781792,-1.133106,,162,144,127,115,913,,,,,,,,,-66,15:20:21.434,
,,50827,8060,326,160,183,-1.000977,0.013672,0.094238,1.321250,-3.631250,0.113750,4.768944,4.781792,-1.148436,,161,142,126,116,913,,,,,,,,,-66,15:20:21.524,
,,50828,8080,327,163,182,-0.998047,0.013184,0.091309,1.391250,-3.832500,-0.096250,4.768944,4.781792,-1.151356,,160,141,125,115,912,,,,,,,,,-66,15:20:21.525,
,,50829,8100,326,162,183,-0.997559,0.017090,0.095215,1.216250,-3.972500,-0.297500,4.768944,4.781792,-1.151356,,161,142,131,117,914,,,,,,,,,-66,15:20:21.526,
,,50830,8120,326,161,183,-0.993164,0.013184,0.089355,1.198750,-3.683750,-0.245000,4.768944,4.781792,-1.144348,,163,142,131,116,913,,,,,,,,,-66,15:20:21.526,
,,50831,8140,327,162,184,-1.000488,0.015137,0.091797,1.295000,-3.745000,-0.210000,4.768944,4.781792,-1.134420,,162,144,128,116,914,,,,,,,,,-66,15:20:21.527,
,,50832,8160,327,162,184,-1.000977,0.014648,0.091797,1.312500,-3.920000,-0.140000,4.768944,4.781792,-1.144494,,161,142,124,116,913,,,,,,,,,-66,15:20:21.528,
,,50833,8180,326,162,182,-0.996094,0.018066,0.095215,1.286250,-3.893750,-0.306250,4.768944,4.781792,-1.150772,,160,141,125,114,912,,,,,,,,,-66,15:20:21.528,
,,50834,8200,325,164,185,-0.994141,0.012695,0.094727,1.303750,-3.683750,-0.131250,4.768944,4.781792,-1.150772,,162,142,129,117,913,,,,,,,,,-66,15:20:21.555,
,,50835,8220,327,162,185,-0.995117,0.012207,0.093750,1.347500,-3.780000,-0.166250,4.768944,4.781792,-1.140552,,162,145,132,118,913,,,,,,,,,-66,15:20:21.582,
,,50836,8240,327,161,184,-0.996094,0.013672,0.091309,1.268750,-3.876250,-0.201250,4.768944,4.781792,-1.149312,,162,144,127,116,914,,,,,,,,,-66,15:20:21.583,
,,50837,8260,326,162,182,-0.997559,0.011719,0.088867,1.268750,-3.850000,-0.175000,4.768944,4.781792,-1.139092,,160,142,125,115,913,,,,,,,,,-66,15:20:21.614,
,,50838,8280,327,161,183,-0.995605,0.013184,0.091309,1.321250,-3.718750,-0.043750,4.768944,4.781792,-1.134274,,161,141,125,116,913,,,,,,,,,-66,15:20:21.644,
,,50839,8300,327,162,183,-0.996582,0.012695,0.089844,1.312500,-3.762500,-0.166250,4.768944,4.781792,-1.134274,,162,143,129,116,914,,,,,,,,,-66,15:20:21.644,
,,50840,8320,326,162,186,-0.993164,0.014648,0.094238,1.268750,-3.885000,-0.183750,4.768944,4.781792,-1.144494,,162,144,130,115,913,,,,,,,,,-66,15:20:21.674,
,,50841,8340,326,162,184,-0.996094,0.011230,0.088867,1.260000,-3.797500,-0.148750,4.768944,4.781792,-1.135588,,162,143,128,117,913,,,,,,,,,-66,15:20:21.704,
,,50842,8360,327,161,183,-0.997070,0.012695,0.090332,1.391250,-3.902500,-0.192500,4.768944,4.781792,-1.133982,,162,142,126,116,912,,,,,,,,,-66,15:20:21.704,
,,50843,8380,328,162,181,-0.998047,0.013184,0.097168,1.286250,-3.797500,-0.166250,4.768944,4.781792,-1.140260,,161,141,125,116,913,,,,,,,,,-66,15:20:21.734,
,,50844,8400,327,162,182,-1.000000,0.014160,0.095215,1.286250,-3.832500,-0.166250,4.768944,4.781792,-1.140844,,162,142,129,116,913,,,,,,,,,-66,15:20:21.764,
,,50845,8420,326,160,183,-0.994629,0.016113,0.095703,1.286250,-3.928750,-0.175000,4.768944,4.781792,-1.140844,,161,142,130,118,913,,,,,,,,,-66,15:20:21.764,
,,50846,8440,326,161,185,-0.996582,0.013184,0.090820,1.295000,-3.780000,-0.140000,4.768944,4.781792,-1.145224,,161,143,129,116,913,,,,,,,,,-66,15:20:21.794,
,,50847,8460,326,162,183,-0.998535,0.013184,0.093262,1.356250,-3.727500,-0.113750,4.768944,4.781792,-1.140406,,162,141,125,114,912,,,,,,,,,-66,15:20:21.822,
,,50848,8480,326,163,182,-0.998047,0.013672,0.091309,1.207500,-3.780000,-0.166250,4.768944,4.781792,-1.143618,,162,141,125,114,913,,,,,,,,,-66,15:20:21.824,
,,50849,8500,327,161,182,-0.994141,0.014648,0.093262,1.277500,-3.815000,-0.183750,4.768944,4.781792,-1.135442,,162,141,127,114,913,,,,,,,,,-66,15:20:21.854,
,,50850,8520,326,159,185,-0.993164,0.015625,0.091797,1.338750,-3.937500,-0.175000,4.768944,4.781792,-1.135442,,161,142,131,117,914,,,,,,,,,-66,15:20:21.884,
,,50851,8540,326,160,184,-0.994141,0.012695,0.093750,1.181250,-3.841250,-0.253750,4.768944,4.781792,-1.137632,,162,144,129,117,913,,,,,,,,,-66,15:20:21.884,
,,50852,8560,325,162,182,-0.996582,0.014648,0.095215,1.338750,-3.806250,-0.210000,4.768944,4.781792,-1.132960,,161,142,125,116,913,,,,,,,,,-66,15:20:21.914,
,,50853,8580,325,163,183,-0.997070,0.011230,0.088867,1.286250,-3.666250,-0.166250,4.768944,4.781792,-1.130040,,161,142,125,115,913,,,,,,,,,-66,15:20:21.942,
,,50854,8600,327,164,183,-0.996094,0.011719,0.089844,1.260000,-3.815000,-0.131250,4.768944,4.781792,-1.135734,,161,142,128,116,913,,,,,,,,,-66,15:20:21.951,
,,50855,8620,326,161,183,-0.995605,0.011719,0.090820,1.233750,-3.710000,-0.262500,4.768944,4.781792,-1.135734,,162,142,131,116,914,,,,,,,,,-66,15:20:21.973,
,,50856,8640,325,161,184,-0.995117,0.015137,0.094727,1.251250,-3.640000,-0.157500,4.768944,4.781792,-1.140114,,161,142,130,117,913,,,,,,,,,-66,15:20:22.002,
,,50857,8660,327,162,184,-0.995605,0.010254,0.091309,1.373750,-4.112500,-0.122500,4.768944,4.781792,-1.127704,,161,142,126,116,913,,,,,,,,,-66,15:20:22.003,
,,50858,8680,327,162,183,-1.001953,0.015625,0.093262,1.312500,-4.007500,-0.070000,4.768944,4.781792,-1.139092,,162,142,125,115,914,,,,,,,,,-66,15:20:22.063,
,,50859,8700,328,162,182,-0.997070,0.012695,0.090332,1.268750,-3.710000,-0.078750,4.768944,4.781792,-1.116754,,161,141,129,115,913,,,,,,,,,-66,15:20:22.064,
,,50860,8720,326,162,183,-0.995605,0.011230,0.091797,1.295000,-3.806250,-0.218750,4.768944,4.781792,-1.116754,,161,143,132,117,914,,,,,,,,,-66,15:20:22.064,
,,50861,8740,325,161,183,-0.993164,0.013672,0.094238,1.338750,-3.902500,-0.175000,4.768944,4.781792,-1.125076,,161,143,130,117,913,,,,,,,,,-66,15:20:22.091,
,,50862,8760,327,160,182,-0.997070,0.010254,0.092773,1.321250,-3.867500,-0.061250,4.768944,4.781792,-1.142450,,161,144,125,116,914,,,,,,,,,-66,15:20:22.121,
,,50863,8780,328,161,183,-0.996094,0.012695,0.088867,1.260000,-3.675000,-0.148750,4.768944,4.781792,-1.126390,,159,141,123,116,913,,,,,,,,,-66,15:20:22.123,
,,50864,8800,326,161,183,-0.999023,0.013672,0.093262,1.207500,-3.605000,-0.262500,4.768944,4.781792,-1.133398,,161,141,128,116,914,,,,,,,,,-66,15:20:22.154,
,,50865,8820,325,163,184,-0.995117,0.014160,0.091309,1.233750,-3.683750,-0.280000,4.768944,4.781792,-1.135296,,162,144,132,117,914,,,,,,,,,-66,15:20:22.184,
,,50866,8840,326,161,184,-0.995117,0.011719,0.092285,1.338750,-3.946250,-0.210000,4.768944,4.781792,-1.135296,,162,144,130,118,914,,,,,,,,,-66,15:20:22.184,
,,50867,8860,321,159,179,-0.999512,0.013184,0.091797,1.303750,-3.701250,-0.052500,4.768944,4.781792,-1.127850,,157,141,124,115,912,,,,,,,,,-66,15:20:22.214,
,,50868,8880,325,161,181,-0.991699,0.016113,0.095703,1.286250,-3.867500,-0.210000,4.768944,4.781792,-1.143472,,160,142,125,115,914,,,,,,,,,-66,15:20:22.241,
,,50869,8900,327,161,183,-1.001465,0.016602,0.091797,1.295000,-3.902500,-0.245000,4.768944,4.781792,-1.146538,,161,142,129,116,914,,,,,,,,,-66,15:20:22.243,
,,50870,8920,328,162,184,-0.992676,0.015625,0.095215,1.225000,-3.928750,-0.236250,4.768944,4.781792,-1.131792,,163,143,132,117,912,,,,,,,,,-66,15:20:22.271,
,,50871,8940,327,162,183,-0.996094,0.009766,0.092285,1.251250,-3.858750,-0.131250,4.768944,4.781792,-1.131792,,161,143,128,116,913,,,,,,,,,-66,15:20:22.301,
,,50872,8960,326,162,181,-0.997559,0.012695,0.089844,1.347500,-3.771250,-0.043750,4.768944,4.781792,-1.137340,,160,143,125,115,913,,,,,,,,,-66,15:20:22.311,
,,50873,8980,327,162,184,-0.999023,0.013672,0.092285,1.295000,-3.858750,-0.113750,4.768944,4.781792,-1.133398,,162,142,126,115,912,,,,,,,,,-66,15:20:22.332,
,,50874,9000,326,162,183,-0.994629,0.011719,0.090820,1.312500,-3.902500,-0.061250,4.768944,4.781792,-1.130478,,162,143,130,116,914,,,,,,,,,-66,15:20:22.363,
,,50875,9020,326,162,184,-0.997070,0.008789,0.088867,1.207500,-3.727500,-0.105000,4.768944,4.781792,-1.126828,,161,143,131,116,912,,,,,,,,,-66,15:20:22.421,
,,50876,9040,326,162,184,-0.999512,0.011230,0.091797,1.295000,-3.876250,-0.140000,4.768944,4.781792,-1.126828,,162,143,128,117,913,,,,,,,,,-66,15:20:22.422,
,,50877,9060,326,162,183,-0.996582,0.016113,0.095215,1.260000,-3.955000,-0.236250,4.768944,4.781792,-1.128726,,161,141,125,114,913,,,,,,,,,-66,15:20:22.423,
,,50878,9080,325,162,182,-0.995117,0.013672,0.093750,1.268750,-3.578750,-0.131250,4.768944,4.781792,-1.129602,,160,142,125,116,914,,,,,,,,,-66,15:20:22.423,
,,50879,9100,326,162,184,-0.994141,0.014160,0.093262,1.251250,-3.683750,-0.175000,4.768944,4.781792,-1.130624,,162,143,130,117,913,,,,,,,,,-66,15:20:22.455,
,,50880,9120,326,162,185,-0.993652,0.013184,0.094238,1.312500,-3.902500,-0.175000,4.768944,4.781792,-1.140406,,161,144,131,115,913,,,,,,,,,-66,15:20:22.484,
,,50881,9140,328,160,183,-1.000977,0.014160,0.093750,1.295000,-3.762500,-0.201250,4.768944,4.781792,-1.145954,,161,144,129,117,912,,,,,,,,,-66,15:20:22.484,
,,50882,9160,325,161,182,-1.000488,0.016602,0.094727,1.251250,-3.753750,-0.087500,4.768944,4.781792,-1.145954,,161,142,126,114,912,,,,,,,,,-66,15:20:22.514,
,,50883,9180,326,162,183,-0.994629,0.015625,0.092773,1.242500,-3.832500,-0.131250,4.768944,4.781792,-1.128872,,161,141,125,114,914,,,,,,,,,-66,15:20:22.544,
,,50884,9200,326,162,184,-0.992188,0.014648,0.089844,1.330000,-3.920000,-0.131250,4.768944,4.781792,-1.134420,,162,142,130,118,913,,,,,,,,,-66,15:20:22.544,
,,50885,9220,326,161,183,-0.995605,0.014648,0.095215,1.347500,-4.033750,-0.131250,4.768944,4.781792,-1.133252,,161,143,130,118,913,,,,,,,,,-66,15:20:22.574,
,,50886,9240,325,162,186,-0.997070,0.017578,0.097656,1.382500,-3.911250,-0.148750,4.768944,4.781792,-1.144348,,162,142,128,116,913,,,,,,,,,-66,15:20:22.604,
,,50887,9260,326,162,184,-0.998535,0.011719,0.092773,1.330000,-3.771250,-0.148750,4.768944,4.781792,-1.144348,,162,143,125,114,913,,,,,,,,,-66,15:20:22.604,
,,50888,9280,328,163,182,-0.996094,0.011719,0.093750,1.225000,-3.535000,-0.131250,4.768944,4.781792,-1.142012,,161,141,125,116,914,,,,,,,,,-66,15:20:22.634,
,,50889,9300,327,163,184,-0.993652,0.013184,0.089355,1.347500,-3.990000,-0.262500,4.768944,4.781792,-1.133544,,162,141,130,115,912,,,,,,,,,-66,15:20:22.664,
,,50890,9320,326,163,185,-0.994629,0.011719,0.093262,1.233750,-4.025000,-0.140000,4.768944,4.781792,-1.126244,,162,143,132,117,914,,,,,,,,,-66,15:20:22.693,
,,50891,9340,327,161,184,-0.997070,0.011719,0.088867,1.207500,-3.622500,-0.140000,4.768944,4.781792,-1.150334,,164,143,130,115,914,,,,,,,,,-66,15:20:22.693,
,,50892,9360,325,160,182,-0.997070,0.012695,0.093262,1.286250,-3.736250,-0.157500,4.768944,4.781792,-1.150334,,161,142,126,116,913,,,,,,,,,-66,15:20:22.721,
,,50893,9380,327,163,181,-0.995605,0.014160,0.093750,1.268750,-4.060000,-0.061250,4.768944,4.781792,-1.135880,,159,142,125,116,914,,,,,,,,,-66,15:20:22.722,
,,50894,9400,328,161,183,-0.995117,0.016113,0.095703,1.347500,-3.946250,-0.043750,4.768944,4.781792,-1.137778,,162,141,129,117,913,,,,,,,,,-66,15:20:22.751,
,,50895,9420,327,163,185,-0.996094,0.009277,0.094727,1.242500,-3.762500,-0.166250,4.768944,4.781792,-1.133252,,162,143,132,118,913,,,,,,,,,-66,15:20:22.782,
,,50896,9440,326,162,184,-0.997070,0.011230,0.093262,1.251250,-3.780000,-0.183750,4.768944,4.781792,-1.132376,,162,144,129,115,913,,,,,,,,,-66,15:20:22.784,
,,50897,9460,326,163,183,-0.997559,0.010742,0.089355,1.251250,-3.876250,-0.253750,4.768944,4.781792,-1.132376,,161,144,125,115,911,,,,,,,,,-66,15:20:22.814,
,,50898,9480,328,163,183,-0.995117,0.015137,0.092285,1.365000,-3.876250,-0.096250,4.768944,4.781792,-1.132376,,161,141,125,114,912,,,,,,,,,-66,15:20:22.842,
,,50899,9500,326,162,183,-0.997559,0.012695,0.090820,1.190000,-3.753750,-0.210000,4.768944,4.781792,-1.139968,,160,142,129,115,914,,,,,,,,,-66,15:20:22.844,
,,50900,9520,325,162,184,-1.000488,0.017090,0.093262,1.277500,-3.920000,-0.183750,4.768944,4.781792,-1.134420,,162,143,130,116,914,,,,,,,,,-66,15:20:22.873,
,,50901,9540,328,162,185,-0.996582,0.013184,0.093750,1.303750,-4.016250,-0.201250,4.768944,4.781792,-1.135442,,161,143,129,116,914,,,,,,,,,-66,15:20:22.933,
,,50902,9560,328,162,182,-1.001465,0.016113,0.094727,1.268750,-3.858750,-0.166250,4.768944,4.781792,-1.130770,,162,142,125,115,914,,,,,,,,,-66,15:20:22.934,
,,50903,9580,328,161,182,-0.994141,0.014160,0.093262,1.286250,-3.605000,-0.183750,4.768944,4.781792,-1.130770,,159,141,125,113,914,,,,,,,,,-66,15:20:22.935,
,,50904,9600,327,162,183,-0.993652,0.017090,0.094727,1.312500,-3.823750,0.043750,4.768944,4.781792,-1.133836,,160,141,127,115,914,,,,,,,,,-66,15:20:22.936,
,,50905,9620,326,162,184,-0.997070,0.012207,0.092773,1.251250,-3.972500,0.017500,4.768944,4.781792,-1.134420,,162,144,130,118,914,,,,,,,,,-66,15:20:22.963,
,,50906,9640,326,162,184,-0.996094,0.013184,0.090820,1.242500,-3.946250,0.017500,4.768944,4.781792,-1.133252,,163,142,128,116,913,,,,,,,,,-66,15:20:22.992,
,,50907,9660,328,160,183,-0.994629,0.018066,0.097656,1.303750,-3.692500,-0.105000,4.768944,4.781792,-1.140260,,162,142,127,116,912,,,,,,,,,-66,15:20:23.022,
,,50908,9680,326,162,182,-0.997559,0.012207,0.091797,1.277500,-3.832500,-0.253750,4.768944,4.781792,-1.140260,,161,142,125,116,913,,,,,,,,,-66,15:20:23.023,
,,50909,9700,327,162,184,-0.999512,0.014648,0.093262,1.338750,-3.771250,-0.078750,4.768944,4.781792,-1.131354,,160,141,127,117,913,,,,,,,,,-66,15:20:23.051,
,,50910,9720,325,161,185,-0.997070,0.010742,0.091309,1.356250,-3.911250,-0.140000,4.768944,4.781792,-1.131938,,164,144,131,117,914,,,,,,,,,-66,15:20:23.082,
,,50911,9740,325,162,184,-0.992676,0.013184,0.095703,1.277500,-4.007500,-0.236250,4.768944,4.781792,-1.134858,,162,142,129,116,913,,,,,,,,,-66,15:20:23.083,
,,50912,9760,326,161,183,-0.995605,0.013184,0.091797,1.330000,-3.858750,-0.166250,4.768944,4.781792,-1.139968,,161,143,127,114,913,,,,,,,,,-66,15:20:23.114,
,,50913,9780,326,162,182,-0.999512,0.014160,0.093750,1.303750,-3.718750,-0.183750,4.768944,4.781792,-1.139968,,161,140,126,115,914,,,,,,,,,-66,15:20:23.142,
,,50914,9800,327,162,184,-0.996582,0.015625,0.094727,1.242500,-3.858750,-0.140000,4.768944,4.781792,-1.127120,,162,141,127,116,913,,,,,,,,,-66,15:20:23.144,
,,50915,9820,325,161,185,-0.994141,0.014648,0.092773,1.303750,-3.972500,-0.201250,4.768944,4.781792,-1.123908,,162,144,132,116,912,,,,,,,,,-66,15:20:23.174,
,,50916,9840,326,160,184,-0.994629,0.017578,0.094238,1.295000,-3.867500,-0.113750,4.768944,4.781792,-1.128434,,162,143,130,117,914,,,,,,,,,-66,15:20:23.202,
,,50917,9860,457,205,214,-0.997070,0.012207,0.092773,1.373750,-3.596250,-0.008750,4.768944,4.781792,-1.138362,,183,155,134,123,916,,,,,,,,,-66,15:20:23.211,
,,50918,9880,330,164,192,-1.000977,0.015137,0.094727,1.321250,-3.753750,0.017500,4.768944,4.781792,-1.120112,,167,149,131,119,914,,,,,,,,,-66,15:20:23.234,
,,50919,9900,327,164,186,-0.995605,0.011230,0.090820,1.242500,-4.016250,-0.183750,4.768944,4.781792,-1.120112,,165,145,132,118,914,,,,,,,,,-66,15:20:23.293,
,,50920,9920,328,162,186,-0.993164,0.013184,0.095703,1.303750,-3.955000,-0.131250,4.768944,4.781792,-1.128288,,164,146,131,117,912,,,,,,,,,-66,15:20:23.293,
,,50921,9940,328,161,184,-1.000000,0.015625,0.093750,1.303750,-3.867500,-0.043750,4.768944,4.781792,-1.129894,,162,143,128,115,913,,,,,,,,,-66,15:20:23.294,
,,50922,9960,327,161,182,-0.995117,0.015625,0.094727,1.172500,-3.736250,-0.122500,4.768944,4.781792,-1.126974,,162,141,126,114,913,,,,,,,,,-66,15:20:23.308,
,,50923,9980,325,161,184,-0.998535,0.014160,0.095703,1.312500,-3.867500,-0.131250,4.768944,4.781792,-1.124200,,161,142,126,116,911,,,,,,,,,-66,15:20:23.323,
,,50924,10000,326,163,184,-0.995605,0.014160,0.092773,1.286250,-3.727500,-0.087500,4.768944,4.781792,-1.124200,,162,142,132,115,913,,,,,,,,,-66,15:20:23.354,
,,50925,10020,326,162,184,-0.992676,0.015137,0.094238,1.295000,-3.902500,-0.166250,4.768944,4.781792,-1.124784,,162,143,132,116,914,,,,,,,,,-66,15:20:23.384,
,,50926,10040,326,160,184,-0.993164,0.013672,0.090332,1.286250,-3.745000,-0.218750,4.768944,4.781792,-1.129602,,162,142,127,115,913,,,,,,,,,-66,15:20:23.385,
,,50927,10060,327,162,184,-0.995117,0.011230,0.089355,1.303750,-3.771250,-0.157500,4.768944,4.781792,-1.132084,,160,142,125,115,911,,,,,,,,,-66,15:20:23.414,
,,50928,10080,325,162,180,-0.996094,0.010254,0.091797,1.347500,-3.867500,-0.131250,4.768944,4.781792,-1.140698,,162,142,126,116,913,,,,,,,,,-66,15:20:23.444,
,,50929,10100,326,161,184,-1.000488,0.013672,0.091797,1.312500,-3.832500,-0.166250,4.768944,4.781792,-1.140698,,161,143,130,116,913,,,,,,,,,-66,15:20:23.444,
,,50930,10120,326,161,185,-0.993652,0.015625,0.095215,1.303750,-3.876250,-0.218750,4.768944,4.781792,-1.129164,,163,144,131,117,913,,,,,,,,,-66,15:20:23.474,
,,50931,10140,325,162,184,-0.995117,0.015137,0.093750,1.251250,-3.788750,-0.166250,4.768944,4.781792,-1.130478,,162,143,130,117,912,,,,,,,,,-66,15:20:23.504,
,,50932,10160,327,162,183,-0.995605,0.013184,0.091309,1.295000,-3.727500,-0.070000,4.768944,4.781792,-1.131792,,161,144,125,115,912,,,,,,,,,-66,15:20:23.504,
,,50933,10180,326,163,183,-0.999023,0.013672,0.091309,1.286250,-3.666250,-0.131250,4.768944,4.781792,-1.134420,,161,141,126,115,912,,,,,,,,,-66,15:20:23.534,
,,50934,10200,325,162,183,-0.998047,0.015625,0.094238,1.146250,-3.675000,-0.210000,4.768944,4.781792,-1.134420,,162,141,130,117,914,,,,,,,,,-66,15:20:23.563,
,,50935,10220,326,162,185,-1.000000,0.015625,0.092773,1.277500,-3.745000,-0.218750,4.768944,4.781792,-1.126828,,164,142,131,116,913,,,,,,,,,-66,15:20:23.564,
,,50936,10240,326,159,184,-0.993652,0.012695,0.093750,1.260000,-3.911250,-0.236250,4.768944,4.781792,-1.135588,,163,143,128,116,914,,,,,,,,,-66,15:20:23.594,
,,50937,10260,326,162,182,-0.990723,0.013184,0.097656,1.242500,-3.613750,-0.148750,4.768944,4.781792,-1.114710,,160,142,125,115,913,,,,,,,,,-66,15:20:23.622,
,,50938,10280,326,161,181,-0.999512,0.018555,0.093262,1.207500,-3.788750,-0.166250,4.768944,4.781792,-1.124346,,162,141,126,115,914,,,,,,,,,-66,15:20:23.624,
,,50939,10300,327,163,184,-0.992676,0.017578,0.096191,1.233750,-3.893750,-0.113750,4.768944,4.781792,-1.123470,,161,143,127,117,913,,,,,,,,,-66,15:20:23.654,
,,50940,10320,326,162,184,-0.995605,0.014648,0.095215,1.321250,-3.963750,-0.070000,4.768944,4.781792,-1.123470,,161,143,132,117,914,,,,,,,,,-66,15:20:23.684,
,,50941,10340,326,160,183,-0.994141,0.013184,0.088867,1.330000,-3.552500,0.096250,4.768944,4.781792,-1.118068,,161,142,127,114,914,,,,,,,,,-66,15:20:23.684,
,,50942,10360,327,162,182,-1.000488,0.015137,0.093750,1.286250,-3.552500,0.175000,4.768944,4.781792,-1.119382,,159,142,125,114,913,,,,,,,,,-66,15:20:23.714,
,,50943,10380,326,162,182,-0.995605,0.011230,0.089844,1.286250,-3.657500,-0.210000,4.768944,4.781792,-1.122156,,160,141,126,114,914,,,,,,,,,-66,15:20:23.744,
,,50944,10400,328,163,185,-0.997559,0.013672,0.092285,1.321250,-3.683750,-0.061250,4.768944,4.781792,-1.110330,,160,141,130,116,915,,,,,,,,,-66,15:20:23.744,
,,50945,10420,327,161,182,-0.996094,0.013184,0.093262,1.321250,-3.885000,0.131250,4.768944,4.781792,-1.110330,,161,142,130,116,913,,,,,,,,,-66,15:20:23.774,
,,50946,10440,327,161,184,-0.996582,0.016602,0.097168,1.233750,-3.955000,0.105000,4.768944,4.781792,-1.126974,,161,143,130,115,915,,,,,,,,,-66,15:20:23.802,
,,50947,10460,327,161,183,-1.000488,0.013672,0.093750,1.251250,-3.850000,-0.052500,4.768944,4.781792,-1.117046,,162,141,127,116,914,,,,,,,,,-66,15:20:23.813,
,,50948,10480,327,161,183,-0.995605,0.014160,0.093262,1.268750,-3.675000,-0.140000,4.768944,4.781792,-1.123178,,162,139,124,115,914,,,,,,,,,-66,15:20:23.831,
,,50949,10500,326,162,183,-0.993164,0.020020,0.092773,1.312500,-3.736250,-0.113750,4.768944,4.781792,-1.118652,,162,143,130,116,913,,,,,,,,,-66,15:20:23.862,
,,50950,10520,328,161,185,-0.999512,0.013184,0.090332,1.207500,-3.640000,-0.096250,4.768944,4.781792,-1.118652,,162,142,130,118,913,,,,,,,,,-66,15:20:23.863,
,,50951,10540,327,161,185,-1.001953,0.020020,0.091309,1.277500,-3.841250,-0.131250,4.768944,4.781792,-1.104198,,162,143,129,117,914,,,,,,,,,-66,15:20:23.891,
,,50952,10560,327,161,183,-1.000000,0.015137,0.093262,1.233750,-3.666250,-0.131250,4.768944,4.781792,-1.110038,,162,141,125,115,912,,,,,,,,,-66,15:20:23.922,
,,50953,10580,326,162,181,-0.994141,0.014160,0.092285,1.268750,-3.762500,-0.157500,4.768944,4.781792,-1.114272,,161,141,126,116,913,,,,,,,,,-66,15:20:23.923,
,,50954,10600,328,164,183,-0.995605,0.012207,0.091797,1.286250,-3.815000,0.210000,4.768944,4.781792,-1.116024,,161,143,129,116,914,,,,,,,,,-66,15:20:23.952,
,,50955,10620,326,162,184,-0.996094,0.012695,0.093750,1.198750,-3.753750,0.717500,4.768944,4.781792,-1.116024,,163,143,131,118,912,,,,,,,,,-66,15:20:23.981,
,,50956,10640,327,161,184,-0.998535,0.012695,0.091797,1.251250,-3.727500,1.426250,4.768944,4.781792,-1.115586,,161,143,130,117,914,,,,,,,,,-66,15:20:23.982,
,,50957,10660,325,160,183,-0.994629,0.014160,0.094238,1.268750,-3.640000,1.645000,4.768944,4.781792,-1.093394,,161,142,125,114,913,,,,,,,,,-66,15:20:24.012,
,,50958,10680,326,162,182,-0.993652,0.020020,0.093750,1.181250,-3.587500,1.688750,4.768944,4.781792,-1.084342,,162,142,124,116,913,,,,,,,,,-66,15:20:24.042,
,,50959,10700,326,161,183,-0.995117,0.013184,0.092285,1.225000,-3.465000,1.960000,4.768944,4.781792,-1.067844,,160,143,129,117,913,,,,,,,,,-66,15:20:24.051,
,,50960,10720,329,161,182,-0.996094,0.019043,0.093750,1.233750,-3.745000,1.505000,4.768944,4.781792,-1.067844,,163,144,130,116,913,,,,,,,,,-66,15:20:24.072,
,,50961,10740,326,162,184,-0.997070,0.017578,0.090820,1.268750,-4.016250,0.017500,4.768944,4.781792,-1.058938,,162,145,128,117,914,,,,,,,,,-65,15:20:24.103,
,,50962,10760,326,163,183,-0.999512,0.017090,0.091797,1.286250,-3.867500,-0.253750,4.768944,4.781792,-1.057624,,162,141,127,114,913,,,,,,,,,-65,15:20:24.103,
,,50963,10780,328,162,184,-0.995605,0.019043,0.095215,1.268750,-3.797500,-0.253750,4.768944,4.781792,-1.056894,,161,141,125,116,914,,,,,,,,,-65,15:20:24.133,
,,50964,10800,327,162,183,-0.997070,0.016602,0.095703,1.347500,-4.042500,-0.245000,4.768944,4.781792,-1.067552,,161,142,129,116,913,,,,,,,,,-65,15:20:24.162,
,,50965,10820,326,162,184,-0.993652,0.019043,0.095703,1.277500,-3.955000,-0.262500,4.768944,4.781792,-1.074122,,163,143,130,117,913,,,,,,,,,-65,15:20:24.163,
,,50966,10840,326,161,184,-0.996094,0.015137,0.092285,1.251250,-3.622500,-0.122500,4.768944,4.781792,-1.074122,,162,144,130,117,913,,,,,,,,,-65,15:20:24.192,
,,50967,10860,322,160,180,-0.999023,0.018555,0.095215,1.312500,-3.657500,-0.096250,4.768944,4.781792,-1.057770,,158,141,123,112,912,,,,,,,,,-65,15:20:24.251,
,,50968,10880,327,163,183,-0.997070,0.018555,0.094727,1.268750,-3.596250,-0.140000,4.768944,4.781792,-1.060982,,162,140,126,116,912,,,,,,,,,-65,15:20:24.253,
,,50969,10900,326,161,183,-0.995605,0.022949,0.093750,1.277500,-3.841250,-0.078750,4.768944,4.781792,-1.070180,,161,141,127,115,912,,,,,,,,,-65,15:20:24.268,
,,50970,10920,326,161,183,-0.995605,0.018555,0.094727,1.321250,-3.911250,-0.140000,4.768944,4.781792,-1.068720,,161,143,129,117,912,,,,,,,,,-65,15:20:24.268,
,,50971,10940,326,161,182,-0.996094,0.014648,0.092773,1.338750,-3.780000,-0.271250,4.768944,4.781792,-1.068720,,160,142,128,116,914,,,,,,,,,-65,15:20:24.283,
,,50972,10960,326,158,183,-0.994141,0.020996,0.097168,1.233750,-3.675000,-0.183750,4.768944,4.781792,-1.061858,,161,142,125,115,913,,,,,,,,,-65,15:20:24.314,
,,50973,10980,326,162,182,-0.995605,0.020020,0.094238,1.303750,-3.797500,-0.078750,4.768944,4.781792,-1.072516,,161,142,126,117,913,,,,,,,,,-65,15:20:24.342,
,,50974,11000,328,161,184,-0.995605,0.019043,0.094238,1.286250,-3.815000,-0.157500,4.768944,4.781792,-1.063610,,162,141,130,116,913,,,,,,,,,-65,15:20:24.344,
,,50975,11020,326,160,184,-0.995605,0.013672,0.092773,1.365000,-3.701250,-0.105000,4.768944,4.781792,-1.068282,,162,142,129,116,913,,,,,,,,,-65,15:20:24.374,
,,50976,11040,327,159,184,-0.995605,0.014648,0.091309,1.251250,-3.753750,-0.070000,4.768944,4.781792,-1.063026,,160,142,126,115,913,,,,,,,,,-65,15:20:24.433,
,,50977,11060,326,161,182,-0.998535,0.019043,0.094238,1.321250,-3.797500,-0.175000,4.768944,4.781792,-1.063026,,160,141,125,115,913,,,,,,,,,-65,15:20:24.434,
,,50978,11080,326,163,182,-0.994629,0.020508,0.093262,1.251250,-3.622500,-0.218750,4.768944,4.781792,-1.056164,,161,140,127,115,912,,,,,,,,,-65,15:20:24.435,
,,50979,11100,327,162,182,-0.995605,0.014160,0.089844,1.338750,-3.806250,-0.166250,4.768944,4.781792,-1.058938,,162,142,130,117,912,,,,,,,,,-65,15:20:24.435,
,,50980,11120,326,161,182,-0.991699,0.015137,0.098145,1.295000,-4.147500,-0.218750,4.768944,4.781792,-1.066384,,162,143,130,117,913,,,,,,,,,-65,15:20:24.463,
,,50981,11140,325,163,184,-0.995117,0.020020,0.098145,1.347500,-4.007500,-0.175000,4.768944,4.781792,-1.061128,,162,143,129,115,914,,,,,,,,,-65,15:20:24.492,
,,50982,11160,327,162,183,-1.005859,0.019531,0.092773,1.233750,-3.508750,-0.175000,4.768944,4.781792,-1.061128,,161,142,125,116,913,,,,,,,,,-65,15:20:24.546,
,,50983,11180,326,162,182,-1.000000,0.020508,0.094238,1.181250,-3.403750,-0.253750,4.768944,4.781792,-1.067844,,161,141,126,114,914,,,,,,,,,-65,15:20:24.546,
,,50984,11200,326,162,184,-0.994629,0.020020,0.093262,1.260000,-3.850000,-0.236250,4.768944,4.781792,-1.055726,,162,141,130,117,914,,,,,,,,,-65,15:20:24.552,
,,50985,11220,325,161,184,-0.995117,0.014648,0.090820,1.216250,-3.867500,-0.262500,4.768944,4.781792,-1.069450,,162,144,131,117,914,,,,,,,,,-65,15:20:24.583,
,,50986,11240,327,160,184,-0.996582,0.016602,0.091309,1.277500,-3.552500,-0.105000,4.768944,4.781792,-1.067260,,163,142,127,115,914,,,,,,,,,-65,15:20:24.584,
,,50987,11260,326,162,183,-1.000000,0.019531,0.093262,1.338750,-3.570000,-0.096250,4.768944,4.781792,-1.067260,,161,142,126,114,913,,,,,,,,,-65,15:20:24.612,
,,50988,11280,327,161,183,-0.993652,0.022461,0.096191,1.356250,-4.068750,-0.087500,4.768944,4.781792,-1.055872,,160,142,125,116,913,,,,,,,,,-65,15:20:24.642,
,,50989,11300,327,162,182,-0.993164,0.015137,0.091309,1.286250,-4.182500,-0.183750,4.768944,4.781792,-1.057332,,162,142,130,116,913,,,,,,,,,-65,15:20:24.643,
,,50990,11320,328,166,185,-0.993164,0.019043,0.094238,1.312500,-3.797500,-0.105000,4.768944,4.781792,-1.058354,,163,144,129,116,914,,,,,,,,,-65,15:20:24.673,
,,50991,11340,327,162,185,-0.996582,0.022461,0.094727,1.312500,-3.622500,-0.166250,4.768944,4.781792,-1.052952,,162,143,128,116,913,,,,,,,,,-65,15:20:24.703,
,,50992,11360,326,162,183,-1.000977,0.019531,0.092773,1.356250,-3.972500,-0.008750,4.768944,4.781792,-1.052952,,160,142,126,116,913,,,,,,,,,-65,15:20:24.704,
,,50993,11380,325,161,183,-0.993652,0.023438,0.097168,1.382500,-3.963750,-0.070000,4.768944,4.781792,-1.061566,,163,141,126,115,913,,,,,,,,,-65,15:20:24.734,
,,50994,11400,327,161,184,-0.998535,0.015137,0.090820,1.242500,-3.482500,-0.323750,4.768944,4.781792,-1.063318,,162,141,129,116,914,,,,,,,,,-65,15:20:24.764,
,,50995,11420,326,161,183,-0.995605,0.016602,0.088379,1.181250,-3.281250,-0.210000,4.768944,4.781792,-1.053390,,162,144,130,115,913,,,,,,,,,-65,15:20:24.764,
,,50996,11440,327,161,183,-0.996094,0.016602,0.093262,1.295000,-3.718750,0.000000,4.768944,4.781792,-1.069304,,162,144,128,115,912,,,,,,,,,-65,15:20:24.794,
,,50997,11460,326,162,184,-0.995117,0.020508,0.096191,1.303750,-4.033750,-0.017500,4.768944,4.781792,-1.069304,,161,142,128,116,913,,,,,,,,,-65,15:20:24.824,
,,50998,11480,326,161,183,-0.993164,0.022949,0.097168,1.172500,-3.771250,-0.210000,4.768944,4.781792,-1.060398,,161,142,125,116,913,,,,,,,,,-65,15:20:24.824,
,,50999,11500,327,162,182,-0.999512,0.014160,0.090820,1.128750,-3.202500,-0.463750,4.768944,4.781792,-1.055434,,161,141,130,117,913,,,,,,,,,-65,15:20:24.854,
,,51000,11520,328,163,185,-0.996582,0.016602,0.093750,1.067500,-3.176250,-0.332500,4.768944,4.781792,-1.060544,,162,142,130,117,914,,,,,,,,,-65,15:20:24.854,
,,51001,11540,328,161,185,-0.999023,0.018555,0.094238,1.198750,-3.675000,-0.140000,4.768944,4.781792,-1.068136,,163,143,130,117,914,,,,,,,,,-65,15:20:24.884,
,,51002,11560,325,160,183,-0.998535,0.014160,0.090820,1.172500,-3.622500,-0.376250,4.768944,4.781792,-1.062004,,160,143,126,116,914,,,,,,,,,-65,15:20:24.913,
,,51003,11580,326,159,182,-0.996094,0.015625,0.088379,1.111250,-3.220000,-0.472500,4.768944,4.781792,-1.062004,,162,141,126,115,912,,,,,,,,,-65,15:20:24.913,
,,51004,11600,326,160,182,-0.997559,0.016602,0.093262,1.146250,-3.237500,-0.210000,4.768944,4.781792,-1.066238,,162,142,127,117,913,,,,,,,,,-65,15:20:24.944,
,,51005,11620,326,162,184,-1.004883,0.022949,0.090820,1.321250,-3.946250,-0.131250,4.768944,4.781792,-1.060544,,161,143,130,117,913,,,,,,,,,-65,15:20:25.002,
,,51006,11640,326,160,184,-0.995117,0.020996,0.095215,1.190000,-3.876250,-0.297500,4.768944,4.781792,-1.063026,,161,142,127,117,913,,,,,,,,,-65,15:20:25.003,
,,51007,11660,325,162,183,-0.992188,0.018555,0.099609,0.988750,-3.185000,-0.253750,4.768944,4.781792,-1.059230,,161,142,126,115,913,,,,,,,,,-65,15:20:25.003,
,,51008,11680,325,164,181,-0.981934,0.004395,0.111328,-1.811250,1.478750,0.665000,4.768944,4.781792,-1.059230,,161,142,125,115,913,,,,,,,,,-65,15:20:25.032,
,,51009,11700,326,162,183,-0.992676,0.014648,0.094727,2.388750,-0.918750,-2.458750,4.768944,4.781792,-1.072808,,161,141,128,116,913,,,,,,,,,-65,15:20:25.034,
,,51010,11720,325,162,184,-0.995605,0.003906,0.103027,-1.592500,5.223750,5.302500,4.768944,4.781792,-1.082006,,160,142,131,116,915,,,,,,,,,-65,15:20:25.064,
,,51011,11740,327,161,183,-1.003906,0.061523,0.077637,-1.216250,16.913750,-1.645000,4.768944,4.781792,-1.064048,,161,144,131,116,913,,,,,,,,,-65,15:20:25.091,
,,51012,11760,328,163,188,-0.971191,-0.019043,0.108887,3.115000,19.670000,-3.272500,4.768944,4.781792,-1.104198,,163,149,136,119,914,,,,,,,,,-65,15:20:25.100,
,,51013,11780,328,162,186,-1.008301,0.044922,0.059082,-12.626250,28.218750,12.538750,4.768944,4.781792,-1.104198,,165,148,134,120,914,,,,,,,,,-65,15:20:25.121,
,,51014,11800,327,160,182,-1.002930,0.012207,0.057129,-16.152500,27.098751,5.136250,4.768944,4.781792,-1.045506,,162,141,127,115,913,,,,,,,,,-65,15:20:25.151,
,,51015,11820,325,161,181,-1.176270,0.000000,0.103027,-25.357500,19.757500,14.411250,4.768944,4.781792,-0.981266,,161,139,125,114,914,,,,,,,,,-65,15:20:25.152,
,,51016,11840,327,161,182,-1.116211,0.073242,0.052246,-28.472500,-63.455002,24.088751,4.768944,4.781792,-0.685762,,160,141,125,116,913,,,,,,,,,-65,15:20:25.186,
,,51017,11860,460,209,218,-1.059082,0.088867,0.119629,-22.452499,-13.851250,108.044998,-4.769820,4.781792,-0.133736,,184,161,144,128,915,,,,,,,,,-65,15:20:25.211,
,,51018,11880,330,161,191,-0.988770,0.064453,0.136230,-50.198750,-26.888750,149.082504,-4.286852,4.781792,0.397996,,170,150,135,121,913,,,,,,,,,-65,15:20:25.218,
,,51019,11900,328,162,185,-0.962402,0.061523,0.177734,-86.546249,-50.338749,185.044998,-4.286852,4.781792,0.397996,,163,144,128,117,914,,,,,,,,,-65,15:20:25.241,
,,51020,11920,326,160,183,-0.975586,0.223633,0.141602,-96.101250,-59.412498,193.471252,-3.707816,-3.942876,0.825922,,161,142,128,117,913,,,,,,,,,-65,15:20:25.271,
,,51021,11940,327,160,185,-0.977539,0.317383,0.155273,-77.078751,-49.262501,184.082504,-3.116808,-2.906860,1.060982,,162,145,133,118,914,,,,,,,,,-65,15:20:25.279,
,,51022,11960,326,160,185,-0.979980,0.320801,0.268555,-81.445000,-82.582497,170.800003,-2.652236,-2.126198,1.083320,,162,145,133,117,914,,,,,,,,,-65,15:20:25.301,
,,51023,11980,328,161,184,-0.958008,0.358887,0.321289,-84.822502,-128.852493,194.845001,-2.280228,-1.473578,0.947248,,162,140,130,116,913,,,,,,,,,-65,15:20:25.331,
,,51024,12000,326,161,181,-0.834473,0.475098,0.383789,-52.823750,-171.464996,235.112503,-2.280228,-1.473578,0.947248,,162,139,125,115,913,,,,,,,,,-65,15:20:25.333,
,,51025,12020,327,159,181,-0.655273,0.552734,0.389648,17.981251,-180.048752,237.527496,-2.006478,-0.977908,0.680068,,160,139,125,116,914,,,,,,,,,-65,15:20:25.362,
,,51026,12040,327,161,184,-0.596191,0.420898,0.345215,70.245003,-143.631256,205.327499,-1.826898,-0.676272,0.382082,,162,145,131,117,913,,,,,,,,,-65,15:20:25.393,
,,51027,12060,327,162,183,-0.614258,0.512207,0.163086,79.327499,-112.910004,109.182503,-1.697542,-0.525600,0.142496,,162,144,131,117,913,,,,,,,,,-65,15:20:25.394,
,,51028,12080,327,161,184,-0.639648,0.587891,0.297363,-33.626251,-106.680000,-5.372500,-1.587312,-0.487056,0.033434,,162,142,129,117,913,,,,,,,,,-65,15:20:25.421,
,,51029,12100,327,160,182,-0.606934,0.626953,0.291992,-105.227501,-93.406250,-45.220001,-1.587312,-0.487056,0.033434,,160,139,123,116,913,,,,,,,,,-65,15:20:25.451,
,,51030,12120,326,155,181,-0.613281,0.397949,0.286133,-94.736252,-63.183750,-56.901249,-1.526138,-0.490122,-0.036792,,159,139,125,114,913,,,,,,,,,-65,15:20:25.453,
,,51031,12140,328,160,185,-0.685547,0.294434,0.390137,-80.823753,-41.676250,-88.786247,-1.495770,-0.514942,-0.051392,,162,145,130,117,914,,,,,,,,,-65,15:20:25.483,
,,51032,12160,328,161,186,-0.757324,0.343750,0.562500,-52.097500,-1.172500,-146.938751,-1.457372,-0.569108,0.003650,,162,145,131,117,914,,,,,,,,,-65,15:20:25.511,
,,51033,12180,327,161,186,-0.837402,0.517578,0.854492,-22.111250,-10.351250,-203.175003,-1.369772,-0.616412,0.062780,,164,144,130,115,912,,,,,,,,,-65,15:20:25.522,
,,51034,12200,326,159,181,-0.890137,0.640625,0.670410,9.625000,-38.814999,-222.153748,-1.369772,-0.616412,0.062780,,162,137,126,115,913,,,,,,,,,-65,15:20:25.546,
,,51035,12220,326,160,182,-0.812988,0.592285,0.615723,39.436249,-10.893750,-137.121246,-1.238956,-0.650430,0.033142,,160,138,125,114,913,,,,,,,,,-65,15:20:25.572,
,,51036,12240,326,160,183,-0.759277,0.388672,0.553711,69.501251,-21.288750,-23.721251,-1.157780,-0.640064,-0.032704,,163,143,130,115,913,,,,,,,,,-65,15:20:25.580,
,,51037,12260,328,159,184,-0.730469,0.287598,0.534180,43.863750,-25.611250,-7.805000,-1.114564,-0.606484,-0.080300,,162,146,131,117,912,,,,,,,,,-65,15:20:25.603,
,,51038,12280,326,160,184,-0.589844,0.202637,0.497070,-5.005000,-49.892502,-34.877499,-1.064340,-0.590716,-0.108478,,161,144,130,117,914,,,,,,,,,-65,15:20:25.632,
,,51039,12300,326,159,181,-0.666504,0.339355,0.433105,-34.125000,-67.226250,-70.209999,-1.023752,-0.589402,-0.142788,,161,140,124,114,914,,,,,,,,,-65,15:20:25.633,
,,51040,12320,328,159,182,-0.764160,0.335449,0.601074,-64.732498,-60.523750,-43.391251,-1.023752,-0.589402,-0.142788,,161,138,124,114,913,,,,,,,,,-65,15:20:25.662,
,,51041,12340,327,158,184,-0.807129,0.312500,0.750488,-120.959999,-68.320000,-59.990002,-0.995574,-0.595826,-0.149504,,161,141,129,116,913,,,,,,,,,-65,15:20:25.691,
,,51042,12360,327,160,184,-0.860352,0.381836,0.793945,-146.597504,-38.517502,-32.016251,-0.953964,-0.603272,-0.151548,,164,146,129,116,915,,,,,,,,,-65,15:20:25.701,
,,51043,12380,328,159,184,-0.835449,0.316895,0.641113,-116.025002,-25.611250,32.646252,-0.928706,-0.595388,-0.161184,,161,145,129,117,911,,,,,,,,,-65,15:20:25.722,
,,51044,12400,326,157,181,-0.735352,0.183105,0.556641,-168.603745,-36.977501,25.690001,-0.922428,-0.593198,-0.136948,,161,139,125,115,912,,,,,,,,,-65,15:20:25.751,
,,51045,12420,325,157,181,-0.614258,0.096191,0.468262,-208.398758,-22.321251,66.946251,-0.922428,-0.593198,-0.136948,,160,138,123,114,913,,,,,,,,,-65,15:20:25.753,
,,51046,12440,327,157,182,-0.573242,-0.117676,0.583496,-160.422501,-39.243752,89.066254,-0.933962,-0.573050,-0.094316,,162,141,128,116,913,,,,,,,,,-65,15:20:25.781,
,,51047,12460,328,159,185,-2.461426,1.431152,1.934570,-28.358749,-54.258751,21.901251,-0.947832,-0.551150,-0.088914,,161,146,132,118,913,,,,,,,,,-65,15:20:25.812,
,,51048,12480,328,157,184,-0.591797,0.179688,0.801270,33.678749,-91.113747,-68.311249,-0.925786,-0.556552,-0.099718,,162,145,132,117,914,,,,,,,,,-65,15:20:25.822,
,,51049,12500,326,159,182,-0.642578,0.141602,0.826172,68.215004,-33.442501,-20.011250,-0.917902,-0.547208,-0.130378,,160,138,124,113,913,,,,,,,,,-65,15:20:25.845,
,,51050,12520,324,158,181,-0.702148,0.183105,0.713379,44.397499,-14.192500,-15.093750,-0.917902,-0.547208,-0.130378,,160,140,123,113,912,,,,,,,,,-65,15:20:25.871,
,,51051,12540,326,160,182,-0.683105,0.159180,0.719238,22.286249,-42.822498,-16.870001,-0.909288,-0.551150,-0.149796,,161,141,128,115,913,,,,,,,,,-65,15:20:25.877,
,,51052,12560,327,159,186,-0.671387,0.185547,0.771484,-20.238750,-83.965004,-24.097500,-0.900382,-0.556990,-0.144832,,162,146,131,118,914,,,,,,,,,-65,15:20:25.901,
,,51053,12580,326,159,182,-0.712891,0.010742,0.640137,-22.680000,-110.302498,-5.950000,-0.895856,-0.552756,-0.160162,,160,140,125,113,913,,,,,,,,,-65,15:20:25.933,
,,51054,12600,325,158,181,-0.679199,-0.010254,0.563477,57.924999,-247.169998,-3.097500,-0.895272,-0.537280,-0.203086,,162,140,126,114,914,,,,,,,,,-65,15:20:25.934,
,,51055,12620,326,158,182,-0.668945,0.158691,0.721680,124.241249,-286.702515,-5.250000,-0.895272,-0.537280,-0.203086,,159,141,129,116,912,,,,,,,,,-65,15:20:25.962,
,,51056,12640,327,162,183,-0.480957,0.324219,0.895996,220.036255,-286.702515,-1.277500,-0.881402,-0.481800,-0.313024,,162,142,130,117,914,,,,,,,,,-65,15:20:25.991,
,,51057,12660,330,161,185,1.617676,-0.404785,-0.254883,-228.059998,-280.420013,12.573750,-0.778326,-0.420918,-0.482384,,164,146,130,117,915,,,,,,,,,-65,15:20:26.001,
,,51058,12680,327,158,182,-0.020508,0.203125,1.272949,91.157501,160.728745,26.670000,-0.778180,-0.413034,-0.476690,,161,143,129,118,913,,,,,,,,,-65,15:20:26.021,
,,51059,12700,328,157,182,0.172852,0.145996,0.931152,1.522500,7.253750,35.236252,-0.792926,-0.406464,-0.473040,,161,142,127,118,914,,,,,,,,,-65,15:20:26.051,
,,51060,12720,326,160,181,0.106445,0.172363,1.042969,9.992500,26.302500,43.382500,-0.792926,-0.406464,-0.473040,,162,140,130,116,913,,,,,,,,,-65,15:20:26.053,
,,51061,12740,326,159,184,0.145508,0.125000,1.000977,1.225000,2.913750,24.683750,-0.808840,-0.402668,-0.467346,,161,144,129,116,914,,,,,,,,,-65,15:20:26.083,
,,51062,12760,328,159,184,0.115234,0.168457,1.007324,11.375000,12.906250,15.260000,-0.807818,-0.399602,-0.470558,,161,142,127,115,913,,,,,,,,,-65,15:20:26.112,
,,51063,12780,326,158,181,0.113281,0.166504,1.017090,3.578750,7.586250,13.256250,-0.821834,-0.394492,-0.479172,,160,144,128,116,914,,,,,,,,,-65,15:20:26.120,
,,51064,12800,327,159,182,0.112305,0.244629,0.901855,-46.654999,27.352501,26.407499,-0.835266,-0.394200,-0.459900,,160,139,126,117,915,,,,,,,,,-65,15:20:26.145,
,,51065,12820,326,158,182,0.160156,0.238770,0.690430,-161.341248,48.676250,34.790001,-0.866948,-0.422816,-0.431430,,161,142,126,116,914,,,,,,,,,-65,15:20:26.172,
,,51066,12840,327,162,183,-1.418945,0.456055,4.441406,-244.020004,208.022507,37.117500,-0.866948,-0.422816,-0.431430,,161,142,128,116,914,,,,,,,,,-65,15:20:26.178,
,,51067,12860,321,157,180,0.074219,-0.448730,0.109863,-58.196251,-88.401253,59.832500,-0.911770,-0.480632,-0.349816,,158,141,126,115,913,,,,,,,,,-65,15:20:26.204,
,,51068,12880,327,159,181,-0.211426,0.059570,1.035645,98.988747,104.746254,37.799999,-0.921114,-0.473916,-0.383396,,159,140,124,115,913,,,,,,,,,-65,15:20:26.233,
,,51069,12900,325,157,181,0.241211,0.038574,0.749512,-2.073750,-97.361252,-4.445000,-0.921990,-0.476252,-0.375804,,160,140,127,114,912,,,,,,,,,-65,15:20:26.233,
,,51070,12920,326,158,181,-0.117676,0.005859,1.142578,-1.347500,19.573750,-0.840000,-0.923304,-0.478442,-0.367628,,160,141,128,117,913,,,,,,,,,-65,15:20:26.264,
,,51071,12940,327,157,182,0.004395,0.023926,1.076660,0.542500,10.990000,-0.341250,-0.923304,-0.478442,-0.367628,,160,142,128,116,913,,,,,,,,,-65,15:20:26.294,
,,51072,12960,327,158,183,-0.025879,-0.008301,1.032227,1.400000,-3.788750,-0.148750,-0.922136,-0.473624,-0.372738,,161,143,127,114,913,,,,,,,,,-65,15:20:26.294,
,,51073,12980,326,157,181,-0.006836,-0.009277,1.040039,1.330000,-3.823750,-0.148750,-0.923012,-0.480632,-0.375512,,160,142,125,116,914,,,,,,,,,-65,15:20:26.324,
,,51074,13000,327,157,182,0.004395,-0.004883,1.033691,1.321250,-3.911250,-0.201250,-0.922720,-0.471726,-0.384710,,160,142,127,116,913,,,,,,,,,-65,15:20:26.354,
,,51075,13020,325,158,181,0.009277,0.000000,1.033203,1.373750,-3.937500,-0.201250,-0.917902,-0.475376,-0.373322,,160,142,129,116,913,,,,,,,,,-65,15:20:26.354,
,,51076,13040,326,159,184,0.008301,0.003418,1.034180,1.268750,-3.815000,-0.148750,-0.919070,-0.478150,-0.376534,,159,143,129,115,913,,,,,,,,,-65,15:20:26.384,
,,51077,13060,326,157,182,0.010742,0.004395,1.030273,1.338750,-3.885000,-0.183750,-0.919070,-0.478150,-0.376534,,161,143,128,116,913,,,,,,,,,-65,15:20:26.413,
,,51078,13080,327,157,181,0.009766,0.001465,1.024902,1.347500,-3.780000,-0.078750,-0.923158,-0.474062,-0.381206,,161,142,126,117,913,,,,,,,,,-65,15:20:26.414,
,,51079,13100,326,158,181,0.003418,0.000000,1.036133,1.198750,-3.753750,-0.192500,-0.923304,-0.477566,-0.380038,,161,141,127,115,911,,,,,,,,,-65,15:20:26.441,
,,51080,13120,327,158,182,0.001465,-0.003418,1.038574,1.338750,-3.823750,-0.218750,-0.920238,-0.478150,-0.372300,,160,140,127,114,913,,,,,,,,,-65,15:20:26.472,
,,51081,13140,326,157,182,0.002441,-0.005859,1.029785,1.347500,-3.823750,-0.140000,-0.915858,-0.482092,-0.390988,,160,142,128,116,913,,,,,,,,,-65,15:20:26.473,
,,51082,13160,326,157,181,0.008301,-0.005371,1.033203,1.242500,-3.806250,-0.245000,-0.915858,-0.482092,-0.390988,,161,144,126,116,913,,,,,,,,,-65,15:20:26.503,
,,51083,13180,328,158,182,0.011230,-0.001953,1.033691,1.347500,-3.806250,-0.166250,-0.922282,-0.479026,-0.377118,,159,141,128,116,913,,,,,,,,,-65,15:20:26.533,
,,51084,13200,326,159,181,0.010742,0.000977,1.040527,1.225000,-3.745000,-0.096250,-0.917464,-0.478880,-0.371862,,160,142,127,114,913,,,,,,,,,-65,15:20:26.534,
,,51085,13220,326,157,182,0.011230,0.000488,1.036133,1.312500,-3.815000,-0.175000,-0.918194,-0.479756,-0.376242,,161,142,127,115,914,,,,,,,,,-65,15:20:26.563,
,,51086,13240,325,157,181,0.001465,-0.002930,1.029297,1.268750,-3.797500,-0.175000,-0.919216,-0.476398,-0.381644,,160,141,127,115,913,,,,,,,,,-65,15:20:26.592,
,,51087,13260,327,158,181,0.000977,0.000000,1.032715,1.338750,-3.832500,-0.122500,-0.919216,-0.476398,-0.381644,,161,143,128,115,912,,,,,,,,,-65,15:20:26.601,
,,51088,13280,327,159,182,-0.001465,-0.005371,1.034180,1.260000,-3.823750,-0.175000,-0.921844,-0.482822,-0.393032,,161,143,127,115,914,,,,,,,,,-65,15:20:26.624,
,,51089,13300,325,158,181,0.000000,0.000977,1.040527,1.172500,-3.893750,-0.201250,-0.919654,-0.479026,-0.396682,,160,140,126,115,914,,,,,,,,,-65,15:20:26.654,
,,51090,13320,327,157,182,0.008301,-0.000977,1.033203,1.260000,-3.858750,-0.087500,-0.921552,-0.485596,-0.375658,,161,142,127,115,914,,,,,,,,,-65,15:20:26.654,
,,51091,13340,326,159,182,0.007812,0.000000,1.035156,1.242500,-3.815000,-0.183750,-0.914544,-0.480924,-0.391864,,160,142,127,115,914,,,,,,,,,-65,15:20:26.684,
,,51092,13360,326,157,182,0.012695,-0.000977,1.032715,1.260000,-3.876250,-0.192500,-0.914544,-0.480924,-0.391864,,160,144,128,115,913,,,,,,,,,-65,15:20:26.714,
,,51093,13380,327,158,183,0.007324,-0.001465,1.030762,1.321250,-3.911250,-0.140000,-0.915128,-0.475230,-0.384126,,162,141,129,114,914,,,,,,,,,-65,15:20:26.714,
,,51094,13400,328,157,183,0.001465,-0.002441,1.035156,1.251250,-3.858750,-0.166250,-0.918778,-0.483552,-0.390258,,161,140,127,117,914,,,,,,,,,-65,15:20:26.743,
,,51095,13420,325,158,182,0.000488,-0.002930,1.031738,1.260000,-3.858750,-0.175000,-0.919654,-0.478442,-0.384564,,162,140,128,114,913,,,,,,,,,-65,15:20:26.771,
,,51096,13440,325,158,183,0.001953,0.000000,1.035645,1.225000,-3.797500,-0.166250,-0.917756,-0.478004,-0.381790,,162,142,129,116,913,,,,,,,,,-65,15:20:26.781,
,,51097,13460,326,158,182,0.007812,0.002441,1.036133,1.295000,-3.841250,-0.175000,-0.917756,-0.478004,-0.381790,,161,142,128,114,913,,,,,,,,,-65,15:20:26.801,
,,51098,13480,327,157,183,0.004883,-0.001953,1.032227,1.242500,-3.771250,-0.122500,-0.914398,-0.478150,-0.381206,,160,142,126,116,914,,,,,,,,,-65,15:20:26.834,
,,51099,13500,326,157,182,0.009766,-0.001465,1.035645,1.277500,-3.832500,-0.192500,-0.914982,-0.481508,-0.382958,,160,141,126,116,914,,,,,,,,,-65,15:20:26.834,
,,51100,13520,327,158,182,0.009766,-0.006348,1.032227,1.330000,-3.841250,-0.140000,-0.918632,-0.486910,-0.385878,,161,141,128,114,912,,,,,,,,,-65,15:20:26.863,
,,51101,13540,326,159,183,0.007812,-0.009277,1.025391,1.251250,-3.788750,-0.113750,-0.918048,-0.476982,-0.381352,,161,141,126,115,913,,,,,,,,,-65,15:20:26.891,
,,51102,13560,327,155,183,0.006836,-0.001953,1.039062,1.277500,-3.876250,-0.157500,-0.917172,-0.481362,-0.370402,,160,142,127,117,913,,,,,,,,,-65,15:20:26.900,
,,51103,13580,327,157,182,0.004883,-0.004395,1.032715,1.233750,-3.823750,-0.140000,-0.917172,-0.481362,-0.370402,,159,142,129,116,913,,,,,,,,,-65,15:20:26.921,
,,51104,13600,327,159,182,0.008301,0.002441,1.037109,1.207500,-3.788750,-0.201250,-0.919508,-0.479902,-0.384272,,160,141,127,116,916,,,,,,,,,-65,15:20:26.951,
,,51105,13620,328,158,181,0.002441,0.003906,1.029785,1.338750,-3.832500,-0.157500,-0.916880,-0.481070,-0.388506,,159,140,126,115,912,,,,,,,,,-65,15:20:26.952,
,,51106,13640,325,159,181,0.006348,-0.002930,1.026855,1.190000,-3.727500,-0.148750,-0.916296,-0.479172,-0.388214,,162,142,128,115,913,,,,,,,,,-65,15:20:26.982,
,,51107,13660,328,156,184,0.008301,-0.005371,1.032715,1.303750,-3.858750,-0.096250,-0.913668,-0.478588,-0.382228,,161,144,128,114,914,,,,,,,,,-65,15:20:27.014,
,,51108,13680,327,159,183,0.008789,-0.006348,1.036621,1.286250,-3.780000,-0.175000,-0.913668,-0.478588,-0.382228,,161,142,126,116,911,,,,,,,,,-65,15:20:27.014,
,,51109,13700,326,159,182,0.006348,-0.007812,1.043457,1.268750,-3.823750,-0.175000,-0.919362,-0.482530,-0.393470,,160,142,127,116,913,,,,,,,,,-65,15:20:27.044,
,,51110,13720,327,158,181,0.006348,-0.003906,1.033691,1.391250,-3.858750,-0.192500,-0.921406,-0.478442,-0.390404,,161,141,127,114,913,,,,,,,,,-65,15:20:27.073,
,,51111,13740,325,159,182,0.006836,0.000977,1.029785,1.251250,-3.771250,-0.087500,-0.918194,-0.476836,-0.381790,,160,142,127,116,913,,,,,,,,,-65,15:20:27.073,
,,51112,13760,326,158,183,0.007812,0.002441,1.034668,1.277500,-3.806250,-0.157500,-0.918048,-0.480632,-0.387484,,160,143,128,115,916,,,,,,,,,-54,15:20:27.103,
,,51113,13780,326,160,181,0.008789,0.004395,1.031738,1.242500,-3.832500,-0.113750,-0.918048,-0.480632,-0.387484,,160,143,127,115,913,,,,,,,,,-54,15:20:27.133,
,,51114,13800,326,159,182,0.005859,-0.001953,1.033691,1.233750,-3.823750,-0.236250,-0.916588,-0.482676,-0.391280,,160,141,129,116,913,,,,,,,,,-54,15:20:27.133,
,,51115,13820,326,156,181,0.005371,-0.001953,1.030273,1.277500,-3.858750,-0.175000,-0.912938,-0.479026,-0.391426,,161,140,127,116,912,,,,,,,,,-54,15:20:27.164,
,,51116,13840,324,158,182,0.004395,-0.003418,1.033691,1.251250,-3.806250,-0.148750,-0.921552,-0.480632,-0.379600,,159,141,127,116,912,,,,,,,,,-54,15:20:27.194,
,,51117,13860,458,205,215,0.004883,-0.002441,1.039062,1.260000,-3.928750,-0.175000,-0.919654,-0.476106,-0.386900,,181,157,137,124,915,,,,,,,,,-54,15:20:27.194,
,,51118,13880,330,161,189,0.005859,-0.006348,1.039551,1.268750,-3.858750,-0.131250,-0.918048,-0.481508,-0.391864,,168,147,133,120,914,,,,,,,,,-54,15:20:27.223,
,,51119,13900,329,160,184,0.008301,0.001465,1.034180,1.338750,-3.832500,-0.166250,-0.918048,-0.481508,-0.391864,,164,143,131,119,913,,,,,,,,,-54,15:20:27.254,
,,51120,13920,327,159,183,0.008301,-0.003418,1.026367,1.242500,-3.771250,-0.183750,-0.917464,-0.477566,-0.384272,,162,141,129,119,914,,,,,,,,,-54,15:20:27.254,
,,51121,13940,326,158,182,0.003418,-0.000488,1.032227,1.321250,-3.867500,-0.087500,-0.914106,-0.481654,-0.392594,,162,143,129,115,913,,,,,,,,,-54,15:20:27.283,
,,51122,13960,326,158,183,0.002441,0.001953,1.039551,1.268750,-3.885000,-0.166250,-0.924764,-0.484428,-0.388506,,160,142,127,117,913,,,,,,,,,-54,15:20:27.312,
,,51123,13980,328,158,181,0.005371,-0.002441,1.038574,1.330000,-3.727500,-0.131250,-0.916588,-0.484574,-0.379162,,161,142,127,117,912,,,,,,,,,-54,15:20:27.321,
,,51124,14000,326,158,183,0.004883,-0.002930,1.031738,1.303750,-3.823750,-0.122500,-0.916588,-0.484574,-0.379162,,160,142,126,116,913,,,,,,,,,-54,15:20:27.346,
,,51125,14020,325,158,183,0.005859,-0.003906,1.023438,1.286250,-3.780000,-0.227500,-0.915420,-0.477712,-0.383688,,161,141,126,116,912,,,,,,,,,-54,15:20:27.372,
,,51126,14040,326,157,182,0.008789,-0.002930,1.036133,1.172500,-3.788750,-0.175000,-0.915566,-0.479318,-0.390112,,162,142,127,116,911,,,,,,,,,-54,15:20:27.379,
,,51127,14060,326,158,182,0.008301,-0.004883,1.038574,1.233750,-3.841250,-0.192500,-0.916004,-0.483552,-0.387630,,162,142,129,116,914,,,,,,,,,-54,15:20:27.403,
,,51128,14080,326,158,182,0.004395,0.000488,1.030762,1.286250,-3.745000,-0.201250,-0.917902,-0.482822,-0.379892,,162,141,126,117,914,,,,,,,,,-54,15:20:27.434,
,,51129,14100,326,158,182,0.005371,-0.003906,1.026855,1.268750,-3.806250,-0.148750,-0.917902,-0.482822,-0.379892,,160,141,127,115,914,,,,,,,,,-54,15:20:27.434,
,,51130,14120,325,159,182,0.001953,-0.002930,1.031738,1.277500,-3.815000,-0.175000,-0.916296,-0.483406,-0.380768,,159,141,128,115,913,,,,,,,,,-54,15:20:27.462,
,,51131,14140,326,158,182,0.008789,0.000488,1.037598,1.260000,-3.788750,-0.166250,-0.915566,-0.482676,-0.383104,,161,141,127,115,913,,,,,,,,,-54,15:20:27.492,
,,51132,14160,326,159,182,0.008789,-0.001465,1.035156,1.295000,-3.780000,-0.175000,-0.916296,-0.478442,-0.396098,,160,142,127,115,913,,,,,,,,,-54,15:20:27.492,
,,51133,14180,327,158,182,0.005859,-0.001465,1.028809,1.277500,-3.823750,-0.175000,-0.913668,-0.475084,-0.382228,,161,142,125,116,912,,,,,,,,,-54,15:20:27.521,
,,51134,14200,324,160,182,0.008789,-0.000488,1.032715,1.233750,-3.683750,-0.113750,-0.913668,-0.475084,-0.382228,,161,141,127,116,912,,,,,,,,,-54,15:20:27.551,
,,51135,14220,327,160,183,0.004883,-0.004395,1.034180,1.356250,-3.823750,-0.140000,-0.911040,-0.475376,-0.396974,,160,141,129,115,911,,,,,,,,,-54,15:20:27.553,
,,51136,14240,326,158,182,0.001465,-0.001465,1.041504,1.312500,-3.867500,-0.131250,-0.912062,-0.476398,-0.392010,,162,143,128,115,913,,,,,,,,,-54,15:20:27.581,
,,51137,14260,328,160,183,0.004395,-0.001953,1.039062,1.286250,-3.815000,-0.210000,-0.909872,-0.474208,-0.402084,,161,142,129,115,913,,,,,,,,,-54,15:20:27.612,
,,51138,14280,326,160,183,0.002441,-0.003418,1.029297,1.277500,-3.753750,-0.192500,-0.908996,-0.475814,-0.413764,,160,142,127,115,914,,,,,,,,,-54,15:20:27.621,
,,51139,14300,328,160,182,0.008301,0.004395,1.033691,1.295000,-3.920000,-0.236250,-0.898776,-0.478150,-0.407924,,161,144,126,115,912,,,,,,,,,-54,15:20:27.646,
,,51140,14320,326,159,182,0.009766,0.000000,1.033203,1.260000,-3.797500,-0.087500,-0.898776,-0.478150,-0.407924,,161,141,128,115,912,,,,,,,,,-54,15:20:27.673,
,,51141,14340,325,159,182,0.003906,-0.000977,1.033203,1.268750,-3.841250,-0.210000,-0.900236,-0.476690,-0.418582,,161,140,127,117,913,,,,,,,,,-54,15:20:27.674,
,,51142,14360,326,157,182,0.007324,-0.002441,1.033691,1.295000,-3.806250,-0.218750,-0.894396,-0.481362,-0.401062,,160,144,127,114,912,,,,,,,,,-54,15:20:27.704,
,,51143,14380,327,159,182,0.009766,-0.007812,1.033203,1.303750,-3.753750,-0.043750,-0.893520,-0.479026,-0.416538,,162,141,127,117,913,,,,,,,,,-54,15:20:27.734,
,,51144,14400,327,159,182,0.004395,-0.001465,1.036621,1.207500,-3.806250,-0.105000,-0.890162,-0.489684,-0.414786,,161,140,128,115,913,,,,,,,,,-54,15:20:27.734,
,,51145,14420,326,157,182,0.004883,-0.006836,1.041016,1.303750,-3.867500,-0.096250,-0.890162,-0.489684,-0.414786,,159,139,128,115,914,,,,,,,,,-54,15:20:27.794,
,,51146,14440,326,158,183,0.001953,-0.000488,1.040527,1.286250,-3.832500,-0.166250,-0.884176,-0.497422,-0.411136,,161,142,127,117,913,,,,,,,,,-54,15:20:27.795,
,,51147,14460,329,160,181,0.006836,0.003906,1.032715,1.312500,-3.701250,-0.131250,-0.880380,-0.497568,-0.420188,,161,142,127,116,914,,,,,,,,,-54,15:20:27.795,
,,51148,14480,325,158,182,0.005371,-0.000488,1.030762,1.260000,-3.823750,-0.131250,-0.875708,-0.504284,-0.428948,,161,143,127,116,914,,,,,,,,,-54,15:20:27.821,
,,51149,14500,326,159,183,0.007324,0.002441,0.991699,1.260000,-3.753750,-0.140000,-0.871766,-0.500488,-0.422524,,161,141,126,116,913,,,,,,,,,-54,15:20:27.851,
,,51150,14520,326,159,184,0.001465,-0.004883,1.081543,1.190000,-3.885000,-0.166250,-0.871766,-0.500488,-0.422524,,161,140,127,116,912,,,,,,,,,-54,15:20:27.852,
,,51151,14540,325,158,183,0.003906,-0.000977,1.035156,1.373750,-4.025000,-0.113750,-0.876584,-0.499904,-0.421210,,160,142,126,115,913,,,,,,,,,-54,15:20:27.882,
,,51152,14560,325,158,182,0.000488,-0.004883,1.031250,1.137500,-3.473750,-0.148750,-0.875562,-0.498590,-0.419458,,160,142,128,115,913,,,,,,,,,-54,15:20:27.912,
,,51153,14580,328,158,182,0.005371,-0.009277,1.009277,1.216250,-3.657500,-0.218750,-0.876730,-0.495524,-0.422962,,160,141,127,114,912,,,,,,,,,-54,15:20:27.912,
,,51154,14600,327,160,182,0.008301,-0.004883,1.033203,0.831250,-3.613750,-0.175000,-0.879358,-0.497422,-0.414202,,161,142,128,116,912,,,,,,,,,-54,15:20:27.941,
,,51155,14620,325,158,184,0.010254,-0.001465,1.066406,0.962500,-3.797500,-0.122500,-0.879358,-0.497422,-0.414202,,160,141,129,116,913,,,,,,,,,-54,15:20:27.972,
,,51156,14640,326,158,182,0.010254,-0.000977,1.054199,1.277500,-3.832500,-0.210000,-0.880672,-0.496254,-0.413034,,161,141,126,115,913,,,,,,,,,-54,15:20:27.972,
,,51157,14660,328,160,183,0.004883,-0.003418,1.026367,1.225000,-3.552500,-0.210000,-0.881256,-0.500926,-0.421940,,160,144,129,116,913,,,,,,,,,-54,15:20:28.001,
,,51158,14680,327,160,182,0.000977,0.002930,1.006836,1.347500,-3.797500,-0.113750,-0.874978,-0.503846,-0.409968,,161,144,129,116,913,,,,,,,,,-54,15:20:28.032,
,,51159,14700,328,159,184,-0.000488,0.002441,1.026367,0.953750,-3.727500,-0.148750,-0.875124,-0.500488,-0.427780,,160,143,127,116,913,,,,,,,,,-54,15:20:28.033,
,,51160,14720,326,159,183,0.004883,-0.003906,1.057617,0.988750,-3.648750,-0.183750,-0.870452,-0.495086,-0.424714,,161,140,127,116,913,,,,,,,,,-54,15:20:28.064,
,,51161,14740,327,158,184,0.004395,0.001953,1.050781,1.321250,-3.701250,-0.096250,-0.870452,-0.495086,-0.424714,,160,141,128,117,912,,,,,,,,,-54,15:20:28.093,
,,51162,14760,326,159,183,0.007324,-0.001465,1.022461,1.233750,-3.718750,-0.183750,-0.876292,-0.500342,-0.422816,,160,144,128,115,914,,,,,,,,,-54,15:20:28.094,
,,51163,14780,325,160,182,0.006348,-0.002930,1.027832,1.207500,-3.815000,-0.175000,-0.874248,-0.498006,-0.419458,,161,143,126,116,913,,,,,,,,,-54,15:20:28.121,
,,51164,14800,328,158,181,0.006836,-0.007812,1.043457,1.076250,-3.718750,-0.157500,-0.875562,-0.502094,-0.422086,,161,141,127,115,912,,,,,,,,,-54,15:20:28.152,
,,51165,14820,326,158,182,0.003906,-0.005371,1.049316,1.242500,-3.762500,-0.166250,-0.870160,-0.499466,-0.421794,,159,141,126,116,913,,,,,,,,,-54,15:20:28.153,
,,51166,14840,326,158,182,0.000977,-0.001953,1.033691,1.268750,-3.745000,-0.175000,-0.870160,-0.499466,-0.421794,,160,141,127,116,913,,,,,,,,,-54,15:20:28.183,
,,51167,14860,320,157,179,0.004883,-0.002441,1.023438,1.225000,-3.788750,-0.175000,-0.869576,-0.501802,-0.422524,,159,139,126,115,913,,,,,,,,,-54,15:20:28.211,
,,51168,14880,326,157,182,0.003418,0.000000,1.028809,1.225000,-3.780000,-0.131250,-0.874686,-0.503992,-0.421210,,160,140,126,115,911,,,,,,,,,-54,15:20:28.213,
,,51169,14900,326,158,182,0.006348,0.000488,1.043945,1.198750,-3.815000,-0.087500,-0.869138,-0.502824,-0.415954,,161,142,128,115,913,,,,,,,,,-54,15:20:28.242,
,,51170,14920,325,159,181,0.000977,-0.004883,1.034668,1.347500,-3.850000,-0.131250,-0.867240,-0.503846,-0.421064,,159,141,127,115,914,,,,,,,,,-54,15:20:28.271,
,,51171,14940,326,160,182,0.004883,-0.002930,1.023438,1.303750,-3.806250,-0.157500,-0.867240,-0.503846,-0.421064,,160,141,126,114,914,,,,,,,,,-54,15:20:28.281,
,,51172,14960,327,159,183,0.005371,-0.005859,1.030273,1.295000,-3.797500,-0.218750,-0.867678,-0.504576,-0.421794,,161,143,126,117,914,,,,,,,,,-54,15:20:28.301,
,,51173,14980,326,158,181,0.005371,-0.002930,1.036621,1.260000,-3.858750,-0.131250,-0.868408,-0.500196,-0.424130,,160,141,127,116,912,,,,,,,,,-54,15:20:28.333,
,,51174,15000,326,159,181,0.004883,-0.000977,1.041016,1.242500,-3.823750,-0.192500,-0.873956,-0.503846,-0.442818,,161,141,128,115,914,,,,,,,,,-54,15:20:28.334,
,,51175,15020,326,159,183,0.005371,-0.003418,1.038086,1.286250,-3.788750,-0.157500,-0.872496,-0.501510,-0.427780,,162,142,127,116,914,,,,,,,,,-54,15:20:28.363,
,,51176,15040,326,158,181,0.005371,-0.001465,1.025879,1.303750,-3.867500,-0.236250,-0.869430,-0.506036,-0.422524,,162,143,130,116,913,,,,,,,,,-54,15:20:28.392,
,,51177,15060,327,159,183,0.004883,0.002441,1.032715,1.321250,-3.780000,-0.148750,-0.869430,-0.506036,-0.422524,,160,144,128,117,914,,,,,,,,,-54,15:20:28.394,
,,51178,15080,326,160,181,0.005371,0.000977,1.034668,1.181250,-3.823750,-0.131250,-0.868408,-0.504868,-0.420918,,160,142,127,115,913,,,,,,,,,-54,15:20:28.423,
,,51179,15100,327,158,182,0.004883,-0.003418,1.037109,1.233750,-3.797500,-0.148750,-0.875270,-0.507350,-0.420188,,162,142,126,116,913,,,,,,,,,-54,15:20:28.453,
,,51180,15120,326,160,183,0.002441,-0.003906,1.035645,1.260000,-3.788750,-0.166250,-0.872350,-0.501510,-0.424130,,160,141,126,116,914,,,,,,,,,-54,15:20:28.454,
,,51181,15140,326,160,182,0.005371,-0.001465,1.039551,1.330000,-3.867500,-0.148750,-0.873810,-0.503116,-0.413618,,159,141,128,115,913,,,,,,,,,-54,15:20:28.481,
