SensoriaRawDataFormat: 4.0
FirmwareRevision: 1.1.5.231R
DeviceName: Sensoria-C1-8462
SerialNumber: E22EC481EC559DCF
Location: 0x0000
Start: 2024-02-26T15:18:46-08:00
SamplingFrequency: 50
AfeName: N/A
AfeUnits: N/A
(null)
(null)
(null)
(null)
(null)
(null)
(null)
(null)

Tag,AutoTag,Tick,T,S0,S1,S2,Ax,Ay,Az,Gx,Gy,Gz,Mx,My,Mz,HRM,S3,S4,S5,S6,S7,CS0,CS1,CS2,CS3,CS4,CS5,CS6,CS7,RSSI,Timestamp,Zero
,,46111,0,327,159,182,-0.997070,-0.003418,0.094238,1.181250,-3.893750,-0.253750,-1.856536,-0.181770,-0.884468,,161,143,129,116,913,,,,,,,,,-50,15:18:46.095,
,,46112,20,326,160,183,-0.999512,-0.001953,0.095215,1.225000,-3.832500,-0.175000,-1.859456,-0.175930,-0.887534,,160,142,129,118,914,,,,,,,,,-50,15:18:46.112,
,,46113,40,327,160,182,-0.996582,-0.002441,0.093262,1.417500,-3.710000,-0.052500,-1.852886,-0.178558,-0.891914,,160,142,127,116,914,,,,,,,,,-50,15:18:46.112,
,,46114,60,326,160,182,-0.992676,0.000488,0.089355,1.347500,-3.701250,-0.253750,-1.849382,-0.179142,-0.877460,,161,143,126,114,913,,,,,,,,,-50,15:18:46.142,
,,46115,80,327,160,183,-0.996582,-0.002930,0.090332,1.198750,-3.727500,-0.332500,-1.849382,-0.179142,-0.877460,,160,142,128,115,914,,,,,,,,,-50,15:18:46.172,
,,46116,100,329,159,183,-0.997559,0.001465,0.094238,1.268750,-3.788750,-0.297500,-1.854930,-0.177682,-0.887388,,161,141,128,117,913,,,,,,,,,-50,15:18:46.173,
,,46117,120,326,158,181,-0.997559,-0.003418,0.091797,1.146250,-3.893750,-0.253750,-1.851426,-0.183084,-0.888410,,159,142,126,115,914,,,,,,,,,-50,15:18:46.230,
,,46118,140,325,160,183,-0.992188,-0.008301,0.098145,1.120000,-3.893750,-0.262500,-1.856098,-0.183084,-0.888410,,160,143,128,116,914,,,,,,,,,-50,15:18:46.251,
,,46119,160,327,160,183,-0.998535,-0.003906,0.095215,1.102500,-3.788750,-0.262500,-1.853762,-0.178266,-0.877752,,162,141,128,117,914,,,,,,,,,-50,15:18:46.262,
,,46120,180,326,159,184,-0.997070,0.001953,0.098633,1.207500,-3.780000,-0.323750,-1.850696,-0.180602,-0.896148,,161,144,126,114,913,,,,,,,,,-50,15:18:46.291,
,,46121,200,327,160,182,-0.993652,0.005859,0.094238,1.216250,-3.780000,-0.271250,-1.855222,-0.175346,-0.901404,,160,142,128,115,914,,,,,,,,,-50,15:18:46.291,
,,46122,220,325,161,183,-0.995117,-0.000488,0.088867,1.312500,-3.788750,-0.192500,-1.856536,-0.176660,-0.902572,,161,142,128,115,914,,,,,,,,,-50,15:18:46.323,
,,46123,240,327,159,184,-1.002441,0.006836,0.089844,1.461250,-3.727500,-0.175000,-1.856536,-0.176660,-0.902572,,161,143,130,116,914,,,,,,,,,-50,15:18:46.354,
,,46124,260,327,160,183,-1.000488,-0.001465,0.093750,1.522500,-3.850000,-0.183750,-1.852156,-0.178120,-0.888556,,161,141,127,116,913,,,,,,,,,-50,15:18:46.355,
,,46125,280,328,159,182,-0.999512,-0.001465,0.094727,1.233750,-3.815000,-0.131250,-1.852010,-0.183230,-0.885490,,162,141,125,115,913,,,,,,,,,-50,15:18:46.382,
,,46126,300,325,159,182,-0.996094,-0.004883,0.096680,0.988750,-3.972500,-0.358750,-1.858580,-0.173448,-0.889140,,160,141,125,115,913,,,,,,,,,-50,15:18:46.442,
,,46127,320,327,160,183,-0.997559,-0.003906,0.092285,1.347500,-3.788750,-0.122500,-1.856098,-0.179142,-0.879212,,161,144,128,116,914,,,,,,,,,-50,15:18:46.443,
,,46128,340,327,160,183,-0.996582,-0.002930,0.091797,1.128750,-3.797500,-0.262500,-1.856098,-0.179142,-0.879212,,161,142,129,117,913,,,,,,,,,-50,15:18:46.443,
,,46129,360,326,158,183,-0.997559,-0.000488,0.092773,1.198750,-3.797500,-0.210000,-1.853324,-0.176368,-0.885782,,161,142,128,116,914,,,,,,,,,-50,15:18:46.472,
,,46130,380,326,161,183,-1.000000,0.002441,0.093262,1.155000,-3.823750,-0.332500,-1.852156,-0.174470,-0.884030,,162,141,126,116,913,,,,,,,,,-50,15:18:46.473,
,,46131,400,327,160,182,-0.995605,-0.001465,0.086426,1.295000,-3.762500,-0.175000,-1.855514,-0.178850,-0.883446,,162,143,125,113,914,,,,,,,,,-50,15:18:46.501,
,,46132,420,328,161,182,-0.994141,-0.001953,0.087402,1.347500,-3.736250,-0.271250,-1.859894,-0.174908,-0.893520,,161,144,127,116,913,,,,,,,,,-50,15:18:46.532,
,,46133,440,326,160,185,-0.994141,-0.000977,0.094727,1.330000,-3.675000,-0.245000,-1.859894,-0.174908,-0.893520,,161,143,127,116,912,,,,,,,,,-50,15:18:46.533,
,,46134,460,325,158,183,-0.997070,0.000488,0.098145,1.058750,-3.683750,-0.411250,-1.848506,-0.180456,-0.886074,,160,142,130,117,913,,,,,,,,,-50,15:18:46.562,
,,46135,480,325,159,184,-0.998535,-0.003906,0.092285,1.207500,-3.823750,-0.227500,-1.853762,-0.181916,-0.892498,,161,142,127,115,913,,,,,,,,,-50,15:18:46.592,
,,46136,500,327,161,182,-0.995605,-0.007324,0.096680,1.041250,-3.701250,-0.350000,-1.850550,-0.183960,-0.890308,,161,142,126,115,914,,,,,,,,,-50,15:18:46.593,
,,46137,520,327,159,183,-1.000000,-0.002930,0.093750,1.295000,-3.640000,-0.253750,-1.853908,-0.180164,-0.897024,,162,142,130,115,912,,,,,,,,,-50,15:18:46.622,
,,46138,540,326,160,183,-1.002930,0.005859,0.090820,1.102500,-3.788750,-0.323750,-1.853908,-0.180164,-0.897024,,162,144,130,116,913,,,,,,,,,-50,15:18:46.651,
,,46139,560,328,159,183,-0.999512,-0.001953,0.090332,1.408750,-3.648750,-0.148750,-1.854638,-0.181624,-0.899068,,162,144,128,114,913,,,,,,,,,-50,15:18:46.651,
,,46140,580,326,158,183,-0.992188,0.001465,0.088379,1.347500,-3.832500,-0.105000,-1.851864,-0.186588,-0.879796,,161,141,129,116,913,,,,,,,,,-50,15:18:46.681,
,,46141,600,328,160,183,-0.998047,0.000977,0.093750,1.443750,-3.762500,-0.148750,-1.854492,-0.177828,-0.892060,,161,142,128,115,913,,,,,,,,,-50,15:18:46.712,
,,46142,620,327,159,183,-0.996094,0.003418,0.096191,1.277500,-3.893750,-0.210000,-1.849236,-0.183668,-0.872350,,161,143,129,115,914,,,,,,,,,-50,15:18:46.713,
,,46143,640,328,160,184,-0.999023,-0.004395,0.093750,1.303750,-3.806250,-0.306250,-1.849236,-0.183814,-0.890892,,162,142,129,116,914,,,,,,,,,-50,15:18:46.741,
,,46144,660,327,161,183,-0.997559,-0.000977,0.096191,1.373750,-3.911250,-0.183750,-1.849236,-0.183814,-0.890892,,161,141,129,116,913,,,,,,,,,-50,15:18:46.801,
,,46145,680,326,160,183,-0.995605,-0.003906,0.093262,1.470000,-3.832500,-0.140000,-1.849090,-0.179288,-0.894250,,159,141,127,115,914,,,,,,,,,-50,15:18:46.802,
,,46146,700,326,159,182,-0.992676,-0.000488,0.092773,1.426250,-3.771250,-0.105000,-1.851280,-0.182062,-0.890746,,161,142,126,117,913,,,,,,,,,-50,15:18:46.803,
,,46147,720,327,161,183,-0.998535,-0.001465,0.094238,1.408750,-3.701250,-0.183750,-1.854930,-0.184544,-0.879942,,162,142,129,116,914,,,,,,,,,-50,15:18:46.831,
,,46148,740,328,160,184,-1.000977,0.002930,0.091309,1.093750,-3.867500,-0.332500,-1.852302,-0.181478,-0.884468,,160,142,129,118,913,,,,,,,,,-50,15:18:46.831,
,,46149,760,327,159,182,-0.996094,-0.004883,0.091309,1.041250,-3.893750,-0.297500,-1.852302,-0.181478,-0.884468,,160,145,129,116,914,,,,,,,,,-50,15:18:46.861,
,,46150,780,327,160,183,-0.995605,0.000488,0.093750,1.111250,-3.902500,-0.210000,-1.850696,-0.184836,-0.899506,,162,144,130,117,913,,,,,,,,,-50,15:18:46.891,
,,46151,800,327,159,184,-1.000977,-0.002441,0.095215,1.365000,-3.823750,-0.052500,-1.850696,-0.184836,-0.899506,,162,143,128,115,914,,,,,,,,,-50,15:18:46.892,
,,46152,820,327,159,183,-0.998047,-0.003418,0.096680,1.417500,-3.745000,-0.148750,-1.853470,-0.180456,-0.883738,,161,141,126,115,912,,,,,,,,,-50,15:18:46.921,
,,46153,840,325,160,182,-0.997070,-0.003418,0.093750,1.470000,-3.745000,-0.131250,-1.851864,-0.183814,-0.885490,,162,141,125,115,914,,,,,,,,,-50,15:18:46.952,
,,46154,860,328,159,183,-0.998047,-0.001953,0.094727,1.478750,-3.736250,-0.192500,-1.854784,-0.183230,-0.888848,,162,143,129,117,913,,,,,,,,,-50,15:18:46.953,
,,46155,880,327,160,181,-0.998047,0.000488,0.094238,1.277500,-3.823750,-0.280000,-1.849820,-0.182208,-0.882570,,162,143,127,116,913,,,,,,,,,-50,15:18:47.011,
,,46156,900,328,158,184,-0.996094,-0.000488,0.090820,1.181250,-3.841250,-0.280000,-1.849820,-0.182208,-0.882570,,162,144,129,118,914,,,,,,,,,-50,15:18:47.012,
,,46157,920,326,160,184,-0.997070,-0.000977,0.089844,1.408750,-3.771250,-0.148750,-1.850696,-0.181770,-0.894396,,161,144,128,115,912,,,,,,,,,-50,15:18:47.013,
,,46158,940,326,159,182,-0.993164,0.001953,0.094238,1.531250,-3.745000,-0.087500,-1.855368,-0.180602,-0.891038,,160,141,127,115,914,,,,,,,,,-50,15:18:47.041,
,,46159,960,327,161,182,-0.998535,0.002441,0.098145,1.522500,-3.753750,-0.253750,-1.855222,-0.179142,-0.881402,,161,142,128,116,913,,,,,,,,,-50,15:18:47.072,
,,46160,980,328,161,183,-0.997559,-0.004395,0.092285,1.566250,-3.683750,-0.122500,-1.853470,-0.177828,-0.887826,,161,143,130,117,914,,,,,,,,,-50,15:18:47.072,
,,46161,1000,326,159,183,-1.000000,-0.001465,0.093262,1.548750,-3.788750,-0.140000,-1.853470,-0.177828,-0.887826,,161,144,128,115,914,,,,,,,,,-50,15:18:47.102,
,,46162,1020,326,161,183,-0.995117,-0.004883,0.093262,1.470000,-3.832500,-0.157500,-1.855076,-0.181770,-0.880234,,160,141,128,116,913,,,,,,,,,-50,15:18:47.132,
,,46163,1040,326,160,182,-0.993164,0.000488,0.093750,1.478750,-3.701250,-0.078750,-1.853470,-0.178850,-0.895126,,161,141,126,116,913,,,,,,,,,-50,15:18:47.133,
,,46164,1060,327,160,182,-0.995117,-0.000977,0.089844,1.365000,-3.753750,-0.201250,-1.851426,-0.179726,-0.894542,,161,142,127,116,914,,,,,,,,,-50,15:18:47.162,
,,46165,1080,329,162,184,-0.998047,-0.001465,0.092773,1.277500,-3.780000,-0.227500,-1.854784,-0.178704,-0.893374,,160,142,129,116,912,,,,,,,,,-50,15:18:47.192,
,,46166,1100,337,164,200,-0.998047,-0.003906,0.090332,1.373750,-3.858750,-0.271250,-1.854346,-0.175492,-0.893520,,176,153,138,123,913,,,,,,,,,-50,15:18:47.222,
,,46167,1120,330,162,189,-0.993164,-0.002441,0.096191,1.137500,-3.832500,-0.227500,-1.855222,-0.183230,-0.904908,,166,149,134,119,915,,,,,,,,,-50,15:18:47.252,
,,46168,1140,328,159,185,-0.999512,-0.001465,0.093750,1.058750,-3.780000,-0.280000,-1.851280,-0.181478,-0.891330,,163,144,130,118,914,,,,,,,,,-50,15:18:47.252,
,,46169,1160,328,160,183,-1.001953,-0.002441,0.094238,1.260000,-3.832500,-0.323750,-1.851280,-0.181478,-0.891330,,161,143,128,118,914,,,,,,,,,-50,15:18:47.283,
,,46170,1180,327,160,184,-0.997559,-0.004883,0.091797,1.373750,-3.823750,-0.210000,-1.855660,-0.178266,-0.887680,,162,141,130,117,912,,,,,,,,,-50,15:18:47.312,
,,46171,1200,327,160,182,-0.992676,0.001465,0.091797,1.321250,-3.780000,-0.201250,-1.848798,-0.181040,-0.896440,,162,143,129,117,913,,,,,,,,,-50,15:18:47.313,
,,46172,1220,327,159,184,-0.996094,-0.001953,0.088379,1.198750,-3.815000,-0.262500,-1.852156,-0.183960,-0.892644,,161,142,129,116,913,,,,,,,,,-50,15:18:47.342,
,,46173,1240,326,159,183,-0.995605,0.000488,0.095703,1.277500,-3.692500,-0.192500,-1.851280,-0.182500,-0.885490,,161,142,129,114,914,,,,,,,,,-50,15:18:47.372,
,,46174,1260,326,159,183,-0.996582,0.000000,0.097656,1.111250,-3.832500,-0.245000,-1.851280,-0.182500,-0.885490,,160,141,126,116,913,,,,,,,,,-50,15:18:47.373,
,,46175,1280,327,159,182,-0.999512,-0.001465,0.092773,1.216250,-3.771250,-0.201250,-1.849674,-0.183522,-0.888410,,162,142,125,116,913,,,,,,,,,-50,15:18:47.402,
,,46176,1300,326,161,183,-0.994629,-0.002441,0.090332,1.382500,-3.753750,-0.087500,-1.853908,-0.183230,-0.892352,,163,142,126,116,913,,,,,,,,,-50,15:18:47.432,
,,46177,1320,327,159,185,-0.997070,-0.005859,0.095215,1.373750,-3.797500,-0.175000,-1.849674,-0.179580,-0.895272,,161,144,127,116,913,,,,,,,,,-50,15:18:47.432,
,,46178,1340,326,160,184,-0.997070,-0.003906,0.089844,1.225000,-3.683750,-0.297500,-1.854930,-0.175638,-0.895856,,161,142,129,117,914,,,,,,,,,-50,15:18:47.460,
,,46179,1360,326,160,182,-0.994141,-0.001953,0.094238,1.268750,-3.841250,-0.201250,-1.855222,-0.178704,-0.885636,,161,141,127,115,914,,,,,,,,,-50,15:18:47.492,
,,46180,1380,326,160,184,-0.993652,-0.001953,0.089844,1.400000,-3.850000,-0.166250,-1.855222,-0.178704,-0.885636,,162,142,126,115,913,,,,,,,,,-50,15:18:47.521,
,,46181,1400,328,160,183,-0.994141,-0.003906,0.087891,1.540000,-3.692500,-0.166250,-1.848506,-0.179580,-0.890454,,161,143,128,116,914,,,,,,,,,-50,15:18:47.522,
,,46182,1420,328,159,182,-0.999512,-0.001465,0.092773,1.426250,-3.710000,-0.192500,-1.854054,-0.178996,-0.889870,,162,144,129,116,912,,,,,,,,,-50,15:18:47.553,
,,46183,1440,327,161,184,-0.998047,-0.003418,0.090820,1.295000,-3.718750,-0.253750,-1.854200,-0.178996,-0.889578,,161,143,130,116,913,,,,,,,,,-50,15:18:47.554,
,,46184,1460,326,160,184,-0.997070,-0.001953,0.092773,1.365000,-3.692500,-0.201250,-1.848506,-0.183376,-0.891768,,160,142,128,114,913,,,,,,,,,-50,15:18:47.582,
,,46185,1480,327,161,182,-0.992188,-0.002441,0.097168,1.330000,-3.745000,-0.201250,-1.848506,-0.183376,-0.891768,,161,142,126,117,913,,,,,,,,,-50,15:18:47.613,
,,46186,1500,327,160,182,-0.996582,-0.003906,0.093262,1.277500,-3.692500,-0.315000,-1.857120,-0.178704,-0.895126,,162,143,128,115,915,,,,,,,,,-50,15:18:47.613,
,,46187,1520,326,160,184,-0.990234,-0.004883,0.097656,1.277500,-3.841250,-0.271250,-1.849528,-0.180310,-0.891038,,161,144,128,116,913,,,,,,,,,-50,15:18:47.642,
,,46188,1540,326,160,183,-0.995605,0.003418,0.095703,1.338750,-3.762500,-0.227500,-1.850404,-0.177974,-0.877460,,161,144,129,117,913,,,,,,,,,-50,15:18:47.671,
,,46189,1560,326,159,182,-0.996582,0.000977,0.095215,1.338750,-3.841250,-0.166250,-1.848944,-0.177244,-0.888994,,162,143,127,116,914,,,,,,,,,-50,15:18:47.672,
,,46190,1580,328,160,182,-1.000488,0.001465,0.090820,1.190000,-3.780000,-0.236250,-1.848944,-0.177244,-0.888994,,161,141,127,115,911,,,,,,,,,-50,15:18:47.732,
,,46191,1600,328,159,183,-0.997559,-0.003418,0.091309,1.207500,-3.806250,-0.218750,-1.850696,-0.178266,-0.887388,,162,142,128,116,914,,,,,,,,,-50,15:18:47.733,
,,46192,1620,327,160,184,-0.998535,-0.003906,0.094238,1.277500,-3.788750,-0.166250,-1.848944,-0.182938,-0.902426,,161,144,129,116,913,,,,,,,,,-50,15:18:47.734,
,,46193,1640,327,159,184,-0.995605,-0.002441,0.091797,1.408750,-3.815000,-0.192500,-1.852302,-0.183522,-0.877460,,162,141,128,115,913,,,,,,,,,-50,15:18:47.761,
,,46194,1660,326,158,183,-1.000000,-0.002441,0.093262,1.382500,-3.797500,-0.175000,-1.852886,-0.181916,-0.893958,,161,142,125,116,913,,,,,,,,,-50,15:18:47.792,
,,46195,1680,326,159,184,-0.999512,-0.000488,0.091797,1.365000,-3.745000,-0.131250,-1.852886,-0.181916,-0.893958,,159,142,126,115,915,,,,,,,,,-50,15:18:47.792,
,,46196,1700,326,160,182,-0.996582,-0.002441,0.091309,1.373750,-3.780000,-0.271250,-1.849674,-0.180310,-0.879358,,161,142,128,116,914,,,,,,,,,-50,15:18:47.822,
,,46197,1720,326,158,183,-0.997559,-0.000977,0.089355,1.295000,-3.832500,-0.245000,-1.856390,-0.180310,-0.887972,,161,142,130,117,913,,,,,,,,,-50,15:18:47.852,
,,46198,1740,327,159,185,-0.996094,-0.001953,0.091309,1.225000,-3.841250,-0.236250,-1.850842,-0.177974,-0.890162,,162,142,129,118,913,,,,,,,,,-50,15:18:47.852,
,,46199,1760,328,159,182,-0.999023,0.000488,0.092773,1.268750,-3.797500,-0.280000,-1.855368,-0.181478,-0.892206,,162,142,126,115,914,,,,,,,,,-50,15:18:47.882,
,,46200,1780,327,160,181,-1.000000,-0.000977,0.093262,1.260000,-3.911250,-0.113750,-1.855368,-0.181478,-0.892206,,161,142,126,116,915,,,,,,,,,-50,15:18:47.915,
,,46201,1800,328,162,183,-0.996094,-0.006836,0.092285,1.277500,-3.788750,-0.096250,-1.850550,-0.179142,-0.883008,,161,141,130,116,913,,,,,,,,,-50,15:18:47.915,
,,46202,1820,328,159,183,-0.996094,-0.003418,0.094727,1.382500,-3.710000,-0.096250,-1.853324,-0.178412,-0.887972,,161,144,129,117,912,,,,,,,,,-50,15:18:47.941,
,,46203,1840,327,161,181,-0.993652,-0.001953,0.093262,1.435000,-3.841250,-0.148750,-1.854054,-0.177828,-0.886804,,162,143,128,117,914,,,,,,,,,-50,15:18:47.971,
,,46204,1860,326,160,183,-0.997070,-0.000977,0.091309,1.505000,-3.815000,-0.087500,-1.850258,-0.180018,-0.890016,,162,144,127,116,914,,,,,,,,,-50,15:18:47.972,
,,46205,1880,327,160,183,-1.000000,-0.002441,0.093262,1.443750,-3.762500,-0.280000,-1.850258,-0.180310,-0.901550,,160,142,128,116,913,,,,,,,,,-50,15:18:48.002,
,,46206,1900,327,160,184,-1.000000,0.001953,0.090820,1.338750,-3.745000,-0.140000,-1.852302,-0.183230,-0.887096,,161,142,128,115,914,,,,,,,,,-50,15:18:48.032,
,,46207,1920,325,161,182,-0.995117,-0.001465,0.094238,1.295000,-3.841250,-0.271250,-1.855222,-0.180602,-0.891768,,161,142,128,115,913,,,,,,,,,-50,15:18:48.032,
,,46208,1940,326,160,182,-0.998047,-0.001465,0.090820,1.461250,-3.823750,-0.175000,-1.855222,-0.180602,-0.891768,,160,142,127,116,913,,,,,,,,,-50,15:18:48.062,
,,46209,1960,327,159,182,-1.000000,-0.002930,0.095215,1.531250,-3.710000,-0.113750,-1.854346,-0.177098,-0.884322,,162,144,128,115,913,,,,,,,,,-50,15:18:48.092,
,,46210,1980,328,158,184,-0.998047,-0.004395,0.091309,1.461250,-3.806250,-0.210000,-1.852010,-0.176806,-0.888994,,162,142,129,117,913,,,,,,,,,-53,15:18:48.122,
,,46211,2000,327,160,183,-0.996582,-0.002930,0.091309,1.347500,-3.832500,-0.140000,-1.848360,-0.185566,-0.887096,,160,144,128,115,913,,,,,,,,,-53,15:18:48.152,
,,46212,2020,325,158,184,-0.996094,-0.003418,0.090332,1.400000,-3.727500,-0.218750,-1.850550,-0.177098,-0.888118,,160,142,128,117,913,,,,,,,,,-53,15:18:48.152,
,,46213,2040,327,159,183,-0.997559,-0.001953,0.089844,1.373750,-3.823750,-0.157500,-1.850550,-0.177098,-0.888118,,162,142,127,116,914,,,,,,,,,-53,15:18:48.153,
,,46214,2060,326,161,183,-0.998047,-0.002441,0.091797,1.356250,-3.788750,-0.166250,-1.852886,-0.179726,-0.884614,,161,141,129,115,913,,,,,,,,,-53,15:18:48.179,
,,46215,2080,325,159,181,-1.000488,0.001953,0.092773,1.312500,-3.815000,-0.166250,-1.854054,-0.172572,-0.886658,,160,141,126,116,913,,,,,,,,,-53,15:18:48.212,
,,46216,2100,326,160,183,-0.998535,-0.002441,0.091309,1.330000,-3.850000,-0.113750,-1.854054,-0.172572,-0.886658,,162,141,129,116,914,,,,,,,,,-53,15:18:48.242,
,,46217,2120,327,160,184,-0.997559,-0.000977,0.095215,1.295000,-3.893750,-0.253750,-1.849966,-0.177536,-0.888118,,161,141,127,116,913,,,,,,,,,-53,15:18:48.272,
,,46218,2140,327,160,183,-0.994141,0.000488,0.096680,1.085000,-3.771250,-0.288750,-1.853032,-0.181624,-0.892206,,161,141,127,115,912,,,,,,,,,-53,15:18:48.272,
,,46219,2160,325,159,182,-0.996094,-0.001465,0.090332,0.883750,-3.876250,-0.376250,-1.852594,-0.176368,-0.890600,,160,141,126,114,912,,,,,,,,,-53,15:18:48.302,
,,46220,2180,327,158,182,-0.998535,-0.001953,0.091797,0.568750,-3.928750,-0.358750,-1.852010,-0.174908,-0.884906,,161,144,128,117,913,,,,,,,,,-53,15:18:48.332,
,,46221,2200,328,159,183,-0.996582,-0.001465,0.092773,1.172500,-3.780000,-0.140000,-1.852010,-0.174908,-0.884906,,160,144,127,117,913,,,,,,,,,-53,15:18:48.332,
,,46222,2220,325,159,184,-0.996582,-0.000977,0.089355,1.181250,-3.832500,-0.245000,-1.853762,-0.180456,-0.898192,,161,140,128,114,913,,,,,,,,,-53,15:18:48.362,
,,46223,2240,326,160,183,-0.995605,0.000977,0.095703,1.198750,-3.780000,-0.236250,-1.858580,-0.180456,-0.883300,,161,142,128,115,911,,,,,,,,,-53,15:18:48.391,
,,46224,2260,326,160,182,-0.994629,-0.002441,0.090820,1.120000,-3.832500,-0.183750,-1.855076,-0.177536,-0.894250,,160,142,127,117,913,,,,,,,,,-53,15:18:48.391,
,,46225,2280,327,162,183,-0.995117,-0.003906,0.088867,1.102500,-3.937500,-0.253750,-1.848798,-0.181478,-0.893374,,162,143,129,117,913,,,,,,,,,-53,15:18:48.422,
,,46226,2300,327,158,185,-0.999512,-0.001953,0.093262,1.251250,-3.937500,-0.315000,-1.848798,-0.181478,-0.893374,,162,144,129,117,913,,,,,,,,,-53,15:18:48.452,
,,46227,2320,327,157,185,-0.997559,0.005371,0.098145,1.181250,-3.736250,-0.183750,-1.848798,-0.177098,-0.881548,,162,144,128,116,912,,,,,,,,,-53,15:18:48.453,
,,46228,2340,326,158,182,-0.998047,-0.001465,0.088867,1.172500,-3.710000,-0.280000,-1.847338,-0.177098,-0.887826,,162,142,127,114,913,,,,,,,,,-53,15:18:48.482,
,,46229,2360,327,160,183,-0.995605,-0.004395,0.092773,1.163750,-3.753750,-0.262500,-1.847484,-0.181040,-0.881840,,160,142,127,116,915,,,,,,,,,-53,15:18:48.512,
,,46230,2380,327,159,184,-0.993652,0.000977,0.089355,1.128750,-3.867500,-0.175000,-1.849966,-0.176660,-0.882278,,162,143,128,116,912,,,,,,,,,-53,15:18:48.512,
,,46231,2400,328,160,183,-0.997559,-0.001465,0.091797,1.076250,-3.788750,-0.280000,-1.849966,-0.176660,-0.882278,,161,141,129,115,913,,,,,,,,,-53,15:18:48.541,
,,46232,2420,327,159,183,-0.998535,-0.001465,0.093262,0.962500,-3.815000,-0.227500,-1.845586,-0.187756,-0.887972,,162,141,127,116,915,,,,,,,,,-53,15:18:48.572,
,,46233,2440,327,162,181,-0.996582,-0.002930,0.092285,0.997500,-3.797500,-0.280000,-1.852740,-0.178412,-0.885928,,161,142,127,114,913,,,,,,,,,-53,15:18:48.573,
,,46234,2460,325,157,182,-0.995117,-0.003418,0.091309,1.006250,-3.753750,-0.306250,-1.848944,-0.181770,-0.891622,,161,141,126,117,913,,,,,,,,,-53,15:18:48.602,
,,46235,2480,328,159,183,-0.995117,-0.004395,0.095215,1.023750,-3.902500,-0.297500,-1.848068,-0.180748,-0.888702,,161,143,129,116,912,,,,,,,,,-53,15:18:48.633,
,,46236,2500,327,159,182,-0.997070,-0.000977,0.097168,1.023750,-3.780000,-0.227500,-1.848068,-0.180748,-0.888702,,161,144,129,116,914,,,,,,,,,-53,15:18:48.633,
,,46237,2520,326,161,184,-0.996582,-0.001953,0.090332,1.023750,-3.806250,-0.350000,-1.846608,-0.181040,-0.882570,,161,143,128,115,914,,,,,,,,,-53,15:18:48.663,
,,46238,2540,326,158,184,-0.996582,-0.003906,0.089355,1.067500,-3.841250,-0.175000,-1.847192,-0.183522,-0.878482,,160,142,127,116,914,,,,,,,,,-53,15:18:48.692,
,,46239,2560,325,160,182,-0.996094,-0.004395,0.089844,1.015000,-3.841250,-0.271250,-1.844856,-0.179872,-0.881110,,161,143,126,114,913,,,,,,,,,-53,15:18:48.721,
,,46240,2580,328,159,183,-0.999512,-0.002441,0.093262,1.146250,-3.823750,-0.192500,-1.848506,-0.180164,-0.892206,,161,142,127,117,913,,,,,,,,,-53,15:18:48.751,
,,46241,2600,327,161,184,-0.998047,-0.002930,0.092285,1.286250,-3.762500,-0.192500,-1.843688,-0.177536,-0.891476,,161,143,129,117,914,,,,,,,,,-53,15:18:48.751,
,,46242,2620,328,159,185,-0.997070,-0.001465,0.090820,1.251250,-3.823750,-0.131250,-1.843688,-0.177536,-0.891476,,161,144,129,117,912,,,,,,,,,-53,15:18:48.752,
,,46243,2640,325,159,183,-0.998047,-0.004883,0.092285,1.181250,-3.867500,-0.245000,-1.841206,-0.180456,-0.888702,,159,142,128,116,914,,,,,,,,,-53,15:18:48.780,
,,46244,2660,325,161,183,-0.991211,-0.002930,0.098145,1.076250,-3.876250,-0.306250,-1.850988,-0.180456,-0.884176,,161,141,125,116,913,,,,,,,,,-53,15:18:48.811,
,,46245,2680,326,161,184,-0.999512,-0.002441,0.092773,1.155000,-3.771250,-0.210000,-1.845440,-0.175784,-0.879796,,161,142,127,117,912,,,,,,,,,-53,15:18:48.812,
,,46246,2700,327,161,184,-0.997559,-0.002441,0.090820,1.347500,-3.788750,-0.157500,-1.846462,-0.184544,-0.874102,,162,143,129,116,914,,,,,,,,,-53,15:18:48.841,
,,46247,2720,328,159,183,-0.993164,-0.000977,0.091309,1.391250,-3.788750,-0.148750,-1.846462,-0.184544,-0.874102,,161,144,128,118,914,,,,,,,,,-53,15:18:48.870,
,,46248,2740,326,159,183,-1.000488,0.002441,0.090332,1.233750,-3.753750,-0.183750,-1.847338,-0.183668,-0.905638,,159,142,128,115,913,,,,,,,,,-53,15:18:48.871,
,,46249,2760,328,160,183,-0.995117,0.000000,0.091797,1.155000,-3.797500,-0.253750,-1.847922,-0.180456,-0.880672,,162,143,128,113,914,,,,,,,,,-53,15:18:48.903,
,,46250,2780,328,158,183,-0.995117,-0.000977,0.094727,0.945000,-3.876250,-0.332500,-1.851572,-0.180018,-0.892498,,161,141,128,115,914,,,,,,,,,-53,15:18:48.931,
,,46251,2800,328,159,182,-0.996582,-0.005371,0.093262,0.892500,-3.902500,-0.271250,-1.847630,-0.183522,-0.883154,,162,143,128,117,913,,,,,,,,,-53,15:18:48.932,
,,46252,2820,327,158,182,-0.999023,-0.003418,0.093750,1.041250,-3.797500,-0.175000,-1.847630,-0.183522,-0.883154,,161,143,129,116,913,,,,,,,,,-53,15:18:48.963,
,,46253,2840,326,161,181,-1.000000,-0.000977,0.094238,1.225000,-3.841250,-0.192500,-1.848068,-0.179726,-0.880818,,161,141,128,116,914,,,,,,,,,-53,15:18:48.992,
,,46254,2860,326,160,183,-0.996582,-0.003418,0.092285,1.146250,-3.780000,-0.227500,-1.846462,-0.177244,-0.876876,,162,141,127,115,913,,,,,,,,,-53,15:18:48.992,
,,46255,2880,328,160,182,-0.995605,-0.004883,0.091797,1.120000,-3.832500,-0.288750,-1.845878,-0.186880,-0.893958,,161,141,128,116,913,,,,,,,,,-53,15:18:49.022,
,,46256,2900,328,160,183,-0.999512,-0.003418,0.092773,1.268750,-3.780000,-0.288750,-1.845586,-0.184106,-0.876584,,162,142,129,117,914,,,,,,,,,-53,15:18:49.052,
,,46257,2920,327,160,183,-0.995117,-0.000488,0.096191,1.470000,-3.683750,-0.271250,-1.845586,-0.184106,-0.876584,,162,143,130,117,914,,,,,,,,,-53,15:18:49.053,
,,46258,2940,327,161,182,-0.997559,-0.001465,0.093262,1.522500,-3.762500,-0.166250,-1.854346,-0.183960,-0.880526,,162,144,129,116,915,,,,,,,,,-53,15:18:49.082,
,,46259,2960,326,158,182,-0.996582,-0.003906,0.094238,1.338750,-3.797500,-0.218750,-1.849236,-0.184398,-0.877606,,161,143,127,116,914,,,,,,,,,-53,15:18:49.112,
,,46260,2980,328,159,183,-0.998047,-0.002930,0.091309,1.321250,-3.753750,-0.262500,-1.847630,-0.182646,-0.881256,,161,141,126,115,914,,,,,,,,,-53,15:18:49.113,
,,46261,3000,328,159,182,-0.995605,-0.001465,0.094727,1.557500,-3.771250,-0.245000,-1.849382,-0.181916,-0.892644,,162,141,127,116,913,,,,,,,,,-53,15:18:49.142,
,,46262,3020,327,160,185,-0.998535,-0.001953,0.091797,1.566250,-3.701250,-0.175000,-1.849382,-0.181916,-0.892644,,161,143,128,116,914,,,,,,,,,-53,15:18:49.172,
,,46263,3040,328,161,182,-0.996094,-0.002441,0.090820,1.426250,-3.753750,-0.183750,-1.852302,-0.184252,-0.887242,,161,142,128,116,913,,,,,,,,,-53,15:18:49.173,
,,46264,3060,337,163,200,-0.999023,-0.000977,0.091797,1.128750,-3.867500,-0.201250,-1.851280,-0.182062,-0.886804,,174,153,137,123,916,,,,,,,,,-53,15:18:49.232,
,,46265,3080,330,161,186,-0.998047,0.002441,0.094727,1.102500,-3.797500,-0.253750,-1.851572,-0.178850,-0.873664,,167,148,132,121,915,,,,,,,,,-53,15:18:49.234,
,,46266,3100,328,159,185,-0.999023,-0.001465,0.094238,1.146250,-3.832500,-0.271250,-1.848360,-0.183230,-0.884614,,164,145,132,117,914,,,,,,,,,-53,15:18:49.261,
,,46267,3120,328,160,182,-0.996094,-0.001465,0.091309,1.216250,-3.858750,-0.245000,-1.848360,-0.183230,-0.884614,,161,144,128,117,914,,,,,,,,,-53,15:18:49.292,
,,46268,3140,325,159,184,-0.996582,-0.001953,0.094727,1.321250,-3.780000,-0.157500,-1.852448,-0.183668,-0.894250,,160,141,126,116,913,,,,,,,,,-53,15:18:49.293,
,,46269,3160,327,159,182,-0.996582,-0.002441,0.093750,1.356250,-3.762500,-0.236250,-1.850550,-0.181770,-0.881840,,161,141,129,116,913,,,,,,,,,-53,15:18:49.322,
,,46270,3180,326,160,183,-0.997559,-0.001465,0.096191,1.277500,-3.780000,-0.166250,-1.854638,-0.180456,-0.900090,,161,142,129,116,912,,,,,,,,,-53,15:18:49.352,
,,46271,3200,326,160,183,-0.995605,-0.001953,0.093262,1.242500,-3.753750,-0.210000,-1.847046,-0.178850,-0.900090,,162,143,127,114,913,,,,,,,,,-53,15:18:49.353,
,,46272,3220,328,159,182,-0.994629,-0.001953,0.092773,1.190000,-3.762500,-0.253750,-1.847046,-0.178850,-0.900090,,161,142,126,116,911,,,,,,,,,-53,15:18:49.382,
,,46273,3240,326,161,183,-0.997559,-0.003418,0.093750,1.102500,-3.823750,-0.306250,-1.856244,-0.179580,-0.889432,,161,141,127,115,913,,,,,,,,,-53,15:18:49.411,
,,46274,3260,325,160,183,-0.997070,-0.002930,0.092773,1.233750,-3.771250,-0.201250,-1.854200,-0.182646,-0.898046,,161,142,127,115,914,,,,,,,,,-53,15:18:49.411,
,,46275,3280,328,160,184,-0.996582,-0.003418,0.090820,1.260000,-3.823750,-0.236250,-1.851864,-0.182354,-0.891622,,162,141,129,116,913,,,,,,,,,-53,15:18:49.442,
,,46276,3300,328,159,183,-0.994629,-0.002441,0.088867,1.198750,-3.806250,-0.218750,-1.857558,-0.177098,-0.876000,,162,142,128,116,912,,,,,,,,,-53,15:18:49.472,
,,46277,3320,328,160,183,-0.998047,-0.001953,0.093750,1.338750,-3.867500,-0.218750,-1.859164,-0.176368,-0.882716,,160,143,127,116,914,,,,,,,,,-53,15:18:49.473,
,,46278,3340,327,162,182,-0.996094,-0.004883,0.090820,1.137500,-3.797500,-0.192500,-1.859164,-0.176368,-0.882716,,160,141,126,115,914,,,,,,,,,-53,15:18:49.502,
,,46279,3360,326,160,183,-0.997559,-0.005371,0.091797,1.128750,-3.797500,-0.297500,-1.850988,-0.187026,-0.891184,,161,141,128,115,914,,,,,,,,,-53,15:18:49.531,
,,46280,3380,328,160,183,-0.997070,-0.004395,0.092773,1.137500,-3.850000,-0.341250,-1.849820,-0.183230,-0.889140,,162,142,128,117,913,,,,,,,,,-53,15:18:49.532,
,,46281,3400,327,159,183,-0.997070,-0.000977,0.094727,1.242500,-3.797500,-0.113750,-1.854638,-0.183084,-0.887534,,162,142,128,117,914,,,,,,,,,-53,15:18:49.562,
,,46282,3420,325,159,184,-0.995605,-0.001465,0.094727,1.268750,-3.797500,-0.210000,-1.853032,-0.183668,-0.897900,,162,141,127,115,913,,,,,,,,,-53,15:18:49.593,
,,46283,3440,326,160,183,-0.996094,-0.002441,0.091309,1.382500,-3.675000,-0.236250,-1.853032,-0.183668,-0.897900,,160,142,126,116,914,,,,,,,,,-53,15:18:49.593,
,,46284,3460,325,161,182,-0.995117,0.000000,0.095703,1.408750,-3.780000,-0.140000,-1.856536,-0.187172,-0.898046,,162,143,128,117,912,,,,,,,,,-53,15:18:49.621,
,,46285,3480,327,160,183,-0.996094,-0.002441,0.090820,1.356250,-3.780000,-0.183750,-1.853470,-0.178412,-0.878482,,162,144,129,117,913,,,,,,,,,-53,15:18:49.652,
,,46286,3500,328,159,183,-1.000488,0.000977,0.092773,1.356250,-3.736250,-0.227500,-1.849966,-0.181916,-0.893812,,161,142,128,116,914,,,,,,,,,-53,15:18:49.653,
,,46287,3520,326,159,183,-0.995117,-0.003418,0.095215,1.321250,-3.762500,-0.253750,-1.851718,-0.185420,-0.897754,,161,143,128,116,913,,,,,,,,,-53,15:18:49.682,
,,46288,3540,327,160,182,-0.996094,-0.003906,0.090820,1.207500,-3.745000,-0.245000,-1.851718,-0.185420,-0.897754,,161,142,127,116,913,,,,,,,,,-53,15:18:49.712,
,,46289,3560,326,158,184,-0.996582,-0.003906,0.091309,1.295000,-3.745000,-0.245000,-1.855660,-0.180310,-0.894542,,161,141,128,115,913,,,,,,,,,-53,15:18:49.712,
,,46290,3580,326,160,183,-0.997559,-0.002441,0.094727,1.373750,-3.727500,-0.201250,-1.846900,-0.177244,-0.881986,,161,144,130,116,914,,,,,,,,,-53,15:18:49.742,
,,46291,3600,326,161,181,-0.997559,-0.002441,0.095215,1.365000,-3.806250,-0.175000,-1.853178,-0.178412,-0.888264,,162,143,127,117,914,,,,,,,,,-53,15:18:49.771,
,,46292,3620,326,160,183,-0.992676,-0.001953,0.097656,1.540000,-3.762500,-0.105000,-1.850258,-0.181040,-0.888848,,161,143,127,115,912,,,,,,,,,-53,15:18:49.772,
,,46293,3640,326,160,182,-0.995605,-0.003418,0.092773,1.391250,-3.771250,-0.245000,-1.850258,-0.181040,-0.888848,,160,140,125,117,912,,,,,,,,,-53,15:18:49.801,
,,46294,3660,327,160,183,-0.995117,-0.002441,0.093750,1.260000,-3.806250,-0.218750,-1.855660,-0.188778,-0.890308,,162,141,128,118,912,,,,,,,,,-53,15:18:49.831,
,,46295,3680,327,161,182,-0.998047,-0.001465,0.094727,1.356250,-3.806250,-0.192500,-1.851864,-0.188048,-0.900382,,162,143,129,117,913,,,,,,,,,-53,15:18:49.832,
,,46296,3700,327,161,182,-0.999023,-0.002930,0.093262,1.330000,-3.832500,-0.122500,-1.848944,-0.189070,-0.886658,,162,142,129,117,913,,,,,,,,,-53,15:18:49.861,
,,46297,3720,326,160,182,-0.995117,-0.003418,0.094238,1.321250,-3.885000,-0.175000,-1.853908,-0.183814,-0.896148,,162,141,129,114,913,,,,,,,,,-53,15:18:49.892,
,,46298,3740,327,159,182,-0.996582,-0.004395,0.089355,1.391250,-3.806250,-0.183750,-1.853908,-0.183814,-0.896148,,161,142,126,115,914,,,,,,,,,-53,15:18:49.893,
,,46299,3760,326,160,183,-0.994141,-0.002441,0.096191,1.426250,-3.745000,-0.201250,-1.851426,-0.177536,-0.892644,,161,142,128,117,914,,,,,,,,,-53,15:18:49.921,
,,46300,3780,327,159,185,-0.995605,-0.005859,0.090820,1.566250,-3.832500,-0.096250,-1.850112,-0.180310,-0.892206,,161,141,128,117,913,,,,,,,,,-53,15:18:49.951,
,,46301,3800,326,159,183,-0.995605,-0.001465,0.092773,1.408750,-3.832500,-0.148750,-1.853908,-0.183960,-0.887242,,161,142,129,116,914,,,,,,,,,-53,15:18:49.952,
,,46302,3820,327,158,182,-0.997559,-0.003418,0.091797,1.583750,-3.762500,-0.210000,-1.858434,-0.186150,-0.891476,,161,142,128,117,914,,,,,,,,,-53,15:18:49.981,
,,46303,3840,327,158,183,-0.996582,0.000488,0.096680,1.461250,-3.753750,-0.087500,-1.848652,-0.179142,-0.885198,,163,142,126,116,913,,,,,,,,,-53,15:18:50.011,
,,46304,3860,327,160,182,-0.996094,-0.002441,0.090332,1.330000,-3.815000,-0.183750,-1.848652,-0.179142,-0.885198,,161,142,126,115,914,,,,,,,,,-53,15:18:50.011,
,,46305,3880,327,161,183,-0.997070,-0.001465,0.091797,1.286250,-3.718750,-0.236250,-1.855660,-0.177098,-0.882862,,161,142,129,118,914,,,,,,,,,-53,15:18:50.041,
,,46306,3900,328,159,182,-0.996094,-0.002930,0.090820,1.190000,-3.797500,-0.210000,-1.850988,-0.180164,-0.886366,,162,141,129,116,913,,,,,,,,,-53,15:18:50.071,
,,46307,3920,326,159,182,-0.997559,-0.001465,0.094727,1.207500,-3.823750,-0.297500,-1.856974,-0.180018,-0.893812,,160,143,127,116,913,,,,,,,,,-53,15:18:50.071,
,,46308,3940,327,160,181,-0.997559,-0.004883,0.092285,1.128750,-3.823750,-0.236250,-1.859164,-0.175930,-0.887680,,161,142,126,115,914,,,,,,,,,-53,15:18:50.101,
,,46309,3960,326,160,182,-0.997070,-0.003906,0.092773,1.251250,-3.675000,-0.315000,-1.859164,-0.175930,-0.887680,,162,141,126,116,914,,,,,,,,,-53,15:18:50.161,
,,46310,3980,327,162,183,-0.995117,0.000000,0.095703,1.190000,-3.745000,-0.262500,-1.852302,-0.179726,-0.888848,,162,141,128,117,914,,,,,,,,,-53,15:18:50.162,
,,46311,4000,327,158,184,-0.994141,-0.002441,0.094727,1.023750,-3.841250,-0.402500,-1.857266,-0.170966,-0.884468,,161,143,129,117,913,,,,,,,,,-53,15:18:50.163,
,,46312,4020,328,158,182,-1.001465,0.000977,0.094727,1.251250,-3.920000,-0.297500,-1.853178,-0.177536,-0.879796,,161,143,126,115,913,,,,,,,,,-53,15:18:50.192,
,,46313,4040,326,158,181,-0.999023,0.000000,0.091309,1.461250,-3.771250,-0.122500,-1.853178,-0.182938,-0.885636,,159,140,126,117,914,,,,,,,,,-53,15:18:50.222,
,,46314,4060,326,158,182,-0.996094,-0.004883,0.096191,1.338750,-3.753750,-0.140000,-1.853178,-0.182938,-0.885636,,161,142,129,116,914,,,,,,,,,-53,15:18:50.252,
,,46315,4080,326,161,183,-0.997070,-0.006836,0.092773,1.303750,-3.727500,-0.183750,-1.855222,-0.180310,-0.868700,,160,142,128,116,912,,,,,,,,,-53,15:18:50.253,
,,46316,4100,329,157,182,-0.995605,0.000000,0.097168,1.190000,-3.753750,-0.236250,-1.857558,-0.185274,-0.889578,,161,141,128,114,913,,,,,,,,,-53,15:18:50.282,
,,46317,4120,327,159,182,-0.994141,-0.000977,0.096680,1.251250,-3.736250,-0.218750,-1.855222,-0.180456,-0.896002,,162,142,128,116,913,,,,,,,,,-53,15:18:50.312,
,,46318,4140,328,160,182,-0.996582,-0.003906,0.093262,1.198750,-3.806250,-0.288750,-1.856390,-0.183668,-0.888702,,162,141,129,115,912,,,,,,,,,-53,15:18:50.313,
,,46319,4160,327,159,183,-0.997070,-0.000977,0.094727,1.050000,-3.841250,-0.227500,-1.856390,-0.183668,-0.888702,,162,142,129,117,914,,,,,,,,,-53,15:18:50.340,
,,46320,4180,326,160,184,-0.996582,0.000488,0.097168,1.006250,-3.850000,-0.236250,-1.856536,-0.186004,-0.889286,,161,142,129,115,914,,,,,,,,,-53,15:18:50.371,
,,46321,4200,325,158,183,-0.995605,0.000000,0.096191,0.936250,-3.806250,-0.315000,-1.857412,-0.180602,-0.890746,,160,142,127,115,913,,,,,,,,,-53,15:18:50.371,
,,46322,4220,325,159,181,-0.994629,-0.002930,0.091309,0.988750,-3.841250,-0.236250,-1.857996,-0.179288,-0.894834,,159,142,126,116,913,,,,,,,,,-53,15:18:50.403,
,,46323,4240,326,158,181,-0.997070,-0.004395,0.091797,1.128750,-3.797500,-0.218750,-1.861208,-0.181770,-0.885052,,159,141,130,116,914,,,,,,,,,-53,15:18:50.432,
,,46324,4260,328,157,182,-0.994141,-0.002441,0.089355,1.233750,-3.832500,-0.288750,-1.861208,-0.181770,-0.885052,,162,143,129,117,914,,,,,,,,,-53,15:18:50.433,
,,46325,4280,328,159,182,-0.995605,-0.001953,0.092285,1.216250,-3.815000,-0.218750,-1.856098,-0.181770,-0.887096,,159,142,128,116,914,,,,,,,,,-53,15:18:50.462,
,,46326,4300,327,160,182,-0.995605,-0.002441,0.090332,1.312500,-3.771250,-0.131250,-1.856974,-0.179872,-0.884760,,162,141,128,114,913,,,,,,,,,-53,15:18:50.491,
,,46327,4320,327,160,182,-0.997559,-0.003418,0.093262,1.338750,-3.806250,-0.245000,-1.855806,-0.185420,-0.889286,,161,141,126,116,913,,,,,,,,,-53,15:18:50.491,
,,46328,4340,326,160,184,-0.996094,-0.002930,0.089355,1.303750,-3.806250,-0.140000,-1.855806,-0.183814,-0.897170,,161,142,129,116,913,,,,,,,,,-53,15:18:50.522,
,,46329,4360,327,160,183,-0.997070,0.002441,0.095215,1.277500,-3.788750,-0.201250,-1.855806,-0.183814,-0.897170,,161,142,127,116,913,,,,,,,,,-53,15:18:50.641,
,,46330,4380,327,159,183,-0.994629,-0.002930,0.097168,1.400000,-3.806250,-0.175000,-1.857558,-0.186442,-0.880234,,161,142,127,115,914,,,,,,,,,-53,15:18:50.653,
,,46331,4400,326,158,183,-0.996094,-0.002441,0.091309,1.251250,-3.841250,-0.280000,-1.852886,-0.186296,-0.888556,,162,142,128,116,912,,,,,,,,,-53,15:18:50.654,
,,46332,4420,326,161,183,-0.997559,-0.001465,0.094238,0.997500,-3.815000,-0.253750,-1.854638,-0.183522,-0.895564,,161,142,128,115,914,,,,,,,,,-53,15:18:50.654,
,,46333,4440,328,158,183,-0.996094,-0.003418,0.092285,1.146250,-3.893750,-0.280000,-1.858872,-0.186150,-0.884906,,162,142,128,116,914,,,,,,,,,-53,15:18:50.654,
,,46334,4460,326,160,181,-0.997070,-0.003906,0.095215,1.198750,-3.753750,-0.192500,-1.858872,-0.186150,-0.884906,,162,141,129,117,913,,,,,,,,,-53,15:18:50.671,
,,46335,4480,328,159,183,-0.994141,-0.001953,0.090332,1.286250,-3.692500,-0.271250,-1.850258,-0.182938,-0.888556,,161,144,130,115,913,,,,,,,,,-53,15:18:50.672,
,,46336,4500,329,160,183,-0.997559,-0.004883,0.088379,1.478750,-3.692500,-0.210000,-1.855660,-0.183814,-0.891330,,161,141,127,114,914,,,,,,,,,-53,15:18:50.672,
,,46337,4520,325,162,182,-0.996582,-0.003906,0.094238,1.330000,-3.780000,-0.245000,-1.854784,-0.187902,-0.883154,,162,141,127,115,913,,,,,,,,,-53,15:18:50.703,
,,46338,4540,326,160,183,-0.996094,-0.001465,0.092773,1.181250,-3.762500,-0.236250,-1.857266,-0.188486,-0.889724,,162,141,127,115,913,,,,,,,,,-53,15:18:50.732,
,,46339,4560,327,159,183,-0.995605,-0.001953,0.090820,1.286250,-3.806250,-0.236250,-1.854346,-0.183522,-0.881986,,162,142,129,116,914,,,,,,,,,-53,15:18:50.732,
,,46340,4580,327,159,183,-0.993164,-0.000488,0.094238,1.155000,-3.841250,-0.236250,-1.854346,-0.183522,-0.881986,,161,143,129,115,913,,,,,,,,,-53,15:18:50.762,
,,46341,4600,327,158,184,-0.998047,-0.002930,0.093262,1.216250,-3.841250,-0.245000,-1.858726,-0.176806,-0.894834,,160,141,127,116,912,,,,,,,,,-53,15:18:50.792,
,,46342,4620,328,159,183,-0.996582,0.000488,0.096680,1.277500,-3.806250,-0.175000,-1.851572,-0.181040,-0.894396,,159,141,126,116,913,,,,,,,,,-53,15:18:50.793,
,,46343,4640,327,160,182,-0.995605,-0.004883,0.091309,1.137500,-3.780000,-0.245000,-1.853908,-0.184398,-0.901842,,162,141,127,115,914,,,,,,,,,-53,15:18:50.822,
,,46344,4660,327,160,184,-0.993164,-0.002441,0.095703,0.927500,-3.955000,-0.376250,-1.852010,-0.186880,-0.884614,,161,143,128,116,913,,,,,,,,,-53,15:18:50.850,
,,46345,4680,328,160,183,-0.998535,-0.000977,0.094727,1.417500,-3.710000,-0.166250,-1.852010,-0.186880,-0.884614,,162,142,128,116,913,,,,,,,,,-53,15:18:50.858,
,,46346,4700,328,159,183,-0.995117,-0.003906,0.091309,1.338750,-3.815000,-0.271250,-1.853470,-0.181916,-0.888994,,161,141,127,116,913,,,,,,,,,-53,15:18:50.882,
,,46347,4720,326,160,182,-0.998047,-0.002441,0.093262,1.408750,-3.762500,-0.166250,-1.849236,-0.181332,-0.890162,,160,142,126,115,914,,,,,,,,,-53,15:18:50.912,
,,46348,4740,326,160,181,-0.997559,0.001465,0.098633,1.286250,-3.832500,-0.183750,-1.855368,-0.183814,-0.892790,,160,140,128,117,913,,,,,,,,,-53,15:18:50.912,
,,46349,4760,327,160,182,-0.994141,-0.002441,0.090332,1.452500,-3.867500,-0.192500,-1.853908,-0.186442,-0.899506,,163,144,128,117,913,,,,,,,,,-53,15:18:50.942,
,,46350,4780,326,159,183,-0.996582,-0.003906,0.091797,1.426250,-3.762500,-0.122500,-1.853908,-0.186442,-0.899506,,161,142,129,118,911,,,,,,,,,-53,15:18:50.972,
,,46351,4800,327,161,183,-0.995605,0.001465,0.096680,1.120000,-3.841250,-0.157500,-1.853470,-0.179580,-0.887096,,162,142,127,116,914,,,,,,,,,-53,15:18:50.973,
,,46352,4820,327,160,182,-0.997559,-0.002441,0.091797,1.233750,-3.771250,-0.175000,-1.852886,-0.182208,-0.892060,,161,143,126,116,913,,,,,,,,,-53,15:18:51.001,
,,46353,4840,326,159,183,-0.999023,-0.001953,0.091309,1.198750,-3.797500,-0.253750,-1.853908,-0.184982,-0.890162,,161,142,127,116,911,,,,,,,,,-53,15:18:51.032,
,,46354,4860,327,159,182,-0.996582,-0.001465,0.093750,1.225000,-3.823750,-0.218750,-1.849674,-0.186004,-0.885928,,161,142,129,117,913,,,,,,,,,-53,15:18:51.033,
,,46355,4880,328,158,183,-0.994629,-0.005371,0.092773,1.338750,-3.920000,-0.280000,-1.849674,-0.186004,-0.885928,,160,143,130,115,912,,,,,,,,,-53,15:18:51.060,
,,46356,4900,327,160,183,-0.995605,-0.004395,0.092773,1.260000,-3.753750,-0.323750,-1.846754,-0.183376,-0.892352,,161,144,128,116,913,,,,,,,,,-53,15:18:51.092,
,,46357,4920,327,160,181,-0.997070,-0.001465,0.094727,1.321250,-3.762500,-0.262500,-1.853178,-0.179434,-0.893228,,161,143,127,116,914,,,,,,,,,-53,15:18:51.093,
,,46358,4940,326,159,181,-0.996094,-0.001953,0.094727,1.338750,-3.806250,-0.236250,-1.856244,-0.184982,-0.879796,,160,142,126,115,914,,,,,,,,,-54,15:18:51.122,
,,46359,4960,328,158,183,-0.993652,0.000488,0.094727,1.242500,-3.858750,-0.288750,-1.849966,-0.185274,-0.889578,,161,144,128,115,914,,,,,,,,,-54,15:18:51.151,
,,46360,4980,326,159,182,-0.998047,-0.000977,0.096680,1.277500,-3.815000,-0.280000,-1.849966,-0.185274,-0.889578,,159,142,129,115,913,,,,,,,,,-54,15:18:51.152,
,,46361,5000,326,159,182,-0.995117,-0.003906,0.091797,1.338750,-3.692500,-0.157500,-1.852010,-0.180894,-0.888994,,161,141,126,115,914,,,,,,,,,-54,15:18:51.182,
,,46362,5020,336,164,197,-0.997070,-0.002441,0.090820,1.321250,-3.762500,-0.210000,-1.854930,-0.178412,-0.890892,,174,153,137,122,914,,,,,,,,,-54,15:18:51.212,
,,46363,5040,330,162,188,-0.998535,-0.002441,0.094238,1.198750,-3.788750,-0.227500,-1.854930,-0.181770,-0.881840,,166,149,133,119,914,,,,,,,,,-54,15:18:51.242,
,,46364,5060,327,158,184,-0.994141,-0.000488,0.093262,1.207500,-3.771250,-0.236250,-1.860332,-0.180602,-0.891038,,162,144,130,116,913,,,,,,,,,-54,15:18:51.271,
,,46365,5080,327,158,183,-0.996582,-0.004395,0.094238,1.198750,-3.736250,-0.253750,-1.860332,-0.180602,-0.891038,,163,143,129,117,913,,,,,,,,,-54,15:18:51.272,
,,46366,5100,328,160,183,-0.994141,-0.002930,0.091797,1.365000,-3.823750,-0.148750,-1.856828,-0.182792,-0.892206,,161,143,127,116,912,,,,,,,,,-54,15:18:51.303,
,,46367,5120,327,161,183,-0.996582,-0.005859,0.090332,1.400000,-3.788750,-0.157500,-1.851718,-0.181624,-0.891768,,161,143,129,116,914,,,,,,,,,-54,15:18:51.333,
,,46368,5140,327,160,182,-0.996582,-0.004395,0.092285,1.618750,-3.762500,-0.035000,-1.853762,-0.179726,-0.896002,,162,141,128,116,911,,,,,,,,,-54,15:18:51.333,
,,46369,5160,327,159,184,-0.995605,-0.003418,0.093262,1.365000,-3.832500,-0.148750,-1.853470,-0.182646,-0.892060,,160,142,127,116,913,,,,,,,,,-54,15:18:51.363,
,,46370,5180,326,157,183,-0.997559,-0.003418,0.091309,1.260000,-3.806250,-0.218750,-1.851572,-0.180748,-0.880672,,161,141,127,116,913,,,,,,,,,-54,15:18:51.391,
,,46371,5200,326,160,184,-0.995605,0.001465,0.097168,1.225000,-3.736250,-0.218750,-1.851572,-0.180748,-0.880672,,161,140,126,114,913,,,,,,,,,-54,15:18:51.392,
,,46372,5220,328,161,184,-0.997559,-0.004395,0.093750,1.260000,-3.780000,-0.218750,-1.851718,-0.183668,-0.894688,,162,143,128,116,912,,,,,,,,,-54,15:18:51.422,
,,46373,5240,328,161,182,-0.993652,0.001465,0.098633,1.478750,-3.710000,-0.096250,-1.853470,-0.176514,-0.886804,,161,143,128,117,913,,,,,,,,,-54,15:18:51.452,
,,46374,5260,327,158,183,-0.996582,-0.001953,0.092285,1.400000,-3.780000,-0.113750,-1.854346,-0.180602,-0.879650,,162,144,128,116,913,,,,,,,,,-54,15:18:51.453,
,,46375,5280,327,159,182,-0.997070,-0.003906,0.091797,1.443750,-3.823750,-0.192500,-1.858142,-0.180018,-0.888848,,161,143,128,114,913,,,,,,,,,-54,15:18:51.482,
,,46376,5300,327,160,182,-0.996582,-0.004395,0.091309,1.225000,-3.771250,-0.218750,-1.858142,-0.180018,-0.888848,,162,141,127,115,912,,,,,,,,,-54,15:18:51.511,
,,46377,5320,328,162,183,-0.997559,-0.001953,0.091309,1.190000,-3.745000,-0.306250,-1.850696,-0.179872,-0.890892,,162,143,129,116,913,,,,,,,,,-54,15:18:51.512,
,,46378,5340,327,159,184,-0.999023,-0.002930,0.092285,1.242500,-3.753750,-0.280000,-1.851718,-0.183230,-0.883008,,162,143,129,117,913,,,,,,,,,-54,15:18:51.542,
,,46379,5360,328,160,183,-0.997070,-0.001465,0.094238,1.312500,-3.876250,-0.148750,-1.857704,-0.183668,-0.884176,,162,142,129,117,913,,,,,,,,,-54,15:18:51.570,
,,46380,5380,328,160,181,-0.997559,-0.002930,0.091309,1.295000,-3.815000,-0.148750,-1.854930,-0.183960,-0.895856,,162,141,127,114,912,,,,,,,,,-54,15:18:51.579,
,,46381,5400,326,159,183,-0.995605,-0.004395,0.092773,1.277500,-3.780000,-0.140000,-1.854930,-0.183960,-0.895856,,161,142,125,118,914,,,,,,,,,-54,15:18:51.603,
,,46382,5420,326,160,183,-0.998535,-0.002441,0.090820,1.295000,-3.771250,-0.175000,-1.857412,-0.183668,-0.894688,,162,141,128,116,913,,,,,,,,,-54,15:18:51.632,
,,46383,5440,328,159,184,-1.000977,0.000977,0.093262,1.382500,-3.718750,-0.166250,-1.857704,-0.182792,-0.885198,,161,144,126,115,913,,,,,,,,,-54,15:18:51.632,
,,46384,5460,326,159,184,-0.996582,-0.004395,0.089844,1.286250,-3.841250,-0.175000,-1.855368,-0.180164,-0.894542,,161,142,129,116,912,,,,,,,,,-54,15:18:51.662,
,,46385,5480,328,160,184,-0.996094,-0.000977,0.095215,1.233750,-3.771250,-0.148750,-1.854930,-0.187902,-0.894104,,162,141,127,115,913,,,,,,,,,-54,15:18:51.692,
,,46386,5500,326,159,183,-0.996582,-0.003906,0.093262,1.190000,-3.771250,-0.166250,-1.854930,-0.187902,-0.894104,,162,142,127,115,913,,,,,,,,,-54,15:18:51.693,
,,46387,5520,327,159,182,-0.996582,-0.002930,0.090820,1.251250,-3.850000,-0.280000,-1.852886,-0.180602,-0.891330,,161,142,129,116,914,,,,,,,,,-54,15:18:51.721,
,,46388,5540,327,159,183,-0.995605,-0.002930,0.095215,1.163750,-3.841250,-0.201250,-1.855806,-0.183230,-0.882570,,162,144,126,117,912,,,,,,,,,-54,15:18:51.751,
,,46389,5560,326,160,183,-0.995605,-0.004395,0.091309,1.067500,-3.911250,-0.183750,-1.853908,-0.184982,-0.885344,,162,144,129,116,913,,,,,,,,,-54,15:18:51.752,
,,46390,5580,326,159,183,-0.999512,-0.002441,0.094727,1.085000,-3.797500,-0.183750,-1.856244,-0.182500,-0.881840,,163,141,126,115,913,,,,,,,,,-54,15:18:51.781,
,,46391,5600,329,159,181,-0.996094,-0.002930,0.093262,1.085000,-3.797500,-0.218750,-1.856244,-0.182500,-0.881840,,160,142,128,116,912,,,,,,,,,-54,15:18:51.812,
,,46392,5620,326,160,183,-0.998047,-0.002441,0.094238,1.417500,-3.788750,-0.210000,-1.856974,-0.185712,-0.898338,,161,141,128,116,913,,,,,,,,,-54,15:18:51.813,
,,46393,5640,325,159,182,-0.995605,0.001953,0.093750,1.443750,-3.806250,-0.122500,-1.855952,-0.182354,-0.903740,,162,142,128,117,913,,,,,,,,,-54,15:18:51.842,
,,46394,5660,325,160,182,-0.996094,-0.003906,0.091309,1.347500,-3.736250,-0.183750,-1.856828,-0.180748,-0.890308,,160,142,129,117,914,,,,,,,,,-54,15:18:51.871,
,,46395,5680,325,160,184,-0.996094,-0.001953,0.092773,1.137500,-3.815000,-0.306250,-1.853032,-0.178850,-0.883154,,160,142,127,116,915,,,,,,,,,-54,15:18:51.872,
,,46396,5700,328,159,182,-0.995605,-0.001953,0.089844,1.032500,-3.823750,-0.288750,-1.854638,-0.182354,-0.886658,,161,141,127,116,913,,,,,,,,,-54,15:18:51.902,
,,46397,5720,328,160,182,-0.994629,-0.000977,0.093750,1.058750,-3.797500,-0.323750,-1.854638,-0.182354,-0.886658,,160,142,127,117,914,,,,,,,,,-54,15:18:51.932,
,,46398,5740,326,160,183,-0.999512,-0.002930,0.095215,1.015000,-3.771250,-0.227500,-1.853908,-0.181624,-0.892498,,162,142,128,116,915,,,,,,,,,-54,15:18:51.933,
,,46399,5760,326,158,183,-0.996094,-0.005859,0.089355,1.207500,-3.815000,-0.262500,-1.855806,-0.181624,-0.883154,,162,144,127,117,914,,,,,,,,,-54,15:18:51.962,
,,46400,5780,325,160,183,-0.997559,-0.002441,0.091797,1.286250,-3.745000,-0.245000,-1.849820,-0.177682,-0.883884,,161,143,129,117,913,,,,,,,,,-54,15:18:51.992,
,,46401,5800,327,158,183,-0.999512,0.000488,0.096680,1.321250,-3.666250,-0.227500,-1.849674,-0.181040,-0.886950,,162,142,127,114,914,,,,,,,,,-54,15:18:51.993,
,,46402,5820,327,160,184,-0.995117,0.000000,0.093750,1.356250,-3.858750,-0.201250,-1.849674,-0.181040,-0.886950,,161,142,128,115,914,,,,,,,,,-54,15:18:52.022,
,,46403,5840,327,160,182,-0.997559,-0.002930,0.095703,1.330000,-3.710000,-0.236250,-1.851426,-0.178850,-0.891184,,161,143,128,115,913,,,,,,,,,-54,15:18:52.052,
,,46404,5860,328,159,183,-0.998047,-0.002930,0.090332,1.163750,-3.736250,-0.218750,-1.851864,-0.178704,-0.900236,,161,142,129,116,913,,,,,,,,,-54,15:18:52.053,
,,46405,5880,326,160,183,-0.999023,-0.002441,0.094238,1.190000,-3.867500,-0.341250,-1.853032,-0.180310,-0.905200,,162,141,127,115,913,,,,,,,,,-54,15:18:52.082,
,,46406,5900,325,160,184,-0.997559,-0.001953,0.093262,1.268750,-3.841250,-0.236250,-1.850112,-0.179142,-0.885928,,161,141,126,116,914,,,,,,,,,-54,15:18:52.112,
,,46407,5920,328,160,184,-0.997070,-0.003906,0.093750,1.347500,-3.893750,-0.201250,-1.850112,-0.179142,-0.885928,,161,142,128,116,914,,,,,,,,,-54,15:18:52.112,
,,46408,5940,327,161,182,-0.995117,-0.001953,0.095215,1.330000,-3.771250,-0.201250,-1.854784,-0.182354,-0.892206,,161,142,128,117,913,,,,,,,,,-54,15:18:52.142,
,,46409,5960,326,160,182,-1.000977,-0.001465,0.094238,1.321250,-3.727500,-0.183750,-1.852448,-0.188340,-0.889578,,162,142,130,117,913,,,,,,,,,-54,15:18:52.172,
,,46410,5980,326,160,183,-0.997559,-0.003418,0.091797,1.277500,-3.780000,-0.280000,-1.852448,-0.187026,-0.889578,,161,143,129,116,913,,,,,,,,,-54,15:18:52.173,
,,46411,6000,326,159,179,-0.996094,-0.001465,0.090820,1.470000,-3.753750,-0.236250,-1.854638,-0.182938,-0.884030,,157,142,127,115,914,,,,,,,,,-54,15:18:52.231,
,,46412,6020,327,158,182,-0.995117,-0.001953,0.093262,1.452500,-3.771250,-0.131250,-1.854638,-0.182938,-0.884030,,161,142,128,115,914,,,,,,,,,-54,15:18:52.232,
,,46413,6040,327,159,182,-0.993652,0.000977,0.096191,1.347500,-3.762500,-0.192500,-1.852886,-0.180602,-0.879504,,160,142,127,115,913,,,,,,,,,-54,15:18:52.262,
,,46414,6060,327,159,183,-0.999023,-0.003906,0.094238,1.032500,-3.797500,-0.218750,-1.854930,-0.182062,-0.893812,,161,142,126,115,913,,,,,,,,,-54,15:18:52.290,
,,46415,6080,327,160,182,-0.996582,-0.002930,0.090332,0.848750,-3.815000,-0.315000,-1.856390,-0.184252,-0.885344,,161,141,126,116,913,,,,,,,,,-54,15:18:52.300,
,,46416,6100,326,159,181,-0.998047,-0.001465,0.094238,0.988750,-3.867500,-0.341250,-1.857412,-0.186588,-0.895856,,161,141,127,116,914,,,,,,,,,-54,15:18:52.322,
,,46417,6120,328,159,182,-0.998535,-0.002441,0.091797,1.216250,-3.753750,-0.236250,-1.857412,-0.186588,-0.895856,,160,142,129,117,914,,,,,,,,,-54,15:18:52.352,
,,46418,6140,326,160,185,-0.999512,-0.002930,0.092285,1.373750,-3.701250,-0.157500,-1.856536,-0.182646,-0.877752,,160,142,127,117,913,,,,,,,,,-54,15:18:52.353,
,,46419,6160,326,160,181,-0.995605,-0.004883,0.090820,1.487500,-3.736250,-0.175000,-1.857266,-0.179434,-0.897900,,162,141,127,114,913,,,,,,,,,-54,15:18:52.381,
,,46420,6180,325,160,183,-0.995605,-0.003418,0.089355,1.566250,-3.745000,-0.113750,-1.853324,-0.180894,-0.889140,,161,142,129,115,913,,,,,,,,,-54,15:18:52.412,
,,46421,6200,327,157,181,-0.999512,-0.001465,0.095215,1.382500,-3.832500,-0.148750,-1.852594,-0.180748,-0.881986,,162,144,127,117,913,,,,,,,,,-54,15:18:52.413,
,,46422,6220,327,161,183,-0.996582,-0.001465,0.096680,1.470000,-3.867500,-0.140000,-1.852594,-0.180748,-0.881986,,161,143,128,116,913,,,,,,,,,-54,15:18:52.441,
,,46423,6240,326,157,183,-0.995605,-0.004395,0.092285,1.400000,-3.832500,-0.192500,-1.859018,-0.180602,-0.898338,,162,143,127,116,912,,,,,,,,,-54,15:18:52.502,
,,46424,6260,326,162,182,-0.996582,-0.002930,0.090820,1.321250,-3.736250,-0.210000,-1.850988,-0.183376,-0.889432,,162,142,129,115,914,,,,,,,,,-54,15:18:52.532,
,,46425,6280,325,157,182,-0.995605,-0.003418,0.091309,1.251250,-3.832500,-0.192500,-1.851864,-0.183522,-0.887534,,161,141,126,115,914,,,,,,,,,-54,15:18:52.533,
,,46426,6300,328,159,183,-0.997559,-0.003906,0.091309,1.452500,-3.806250,-0.157500,-1.853470,-0.184836,-0.884322,,162,142,128,116,913,,,,,,,,,-54,15:18:52.534,
,,46427,6320,326,158,181,-0.994629,-0.001953,0.089355,1.505000,-3.867500,-0.192500,-1.853470,-0.184836,-0.884322,,161,143,129,117,914,,,,,,,,,-54,15:18:52.534,
,,46428,6340,326,160,183,-0.997559,-0.004395,0.090820,1.548750,-3.762500,-0.140000,-1.848214,-0.185274,-0.883446,,159,144,127,117,914,,,,,,,,,-54,15:18:52.562,
,,46429,6360,325,161,184,-0.998047,-0.005371,0.092285,1.452500,-3.762500,-0.175000,-1.852448,-0.184982,-0.896440,,161,143,127,117,912,,,,,,,,,-54,15:18:52.592,
,,46430,6380,328,158,182,-0.994141,-0.000488,0.095215,1.426250,-3.841250,-0.175000,-1.857412,-0.187610,-0.888994,,161,142,127,115,914,,,,,,,,,-54,15:18:52.593,
,,46431,6400,327,159,184,-0.998535,-0.003906,0.096191,1.435000,-3.736250,-0.271250,-1.853762,-0.183668,-0.884906,,160,143,128,117,914,,,,,,,,,-54,15:18:52.622,
,,46432,6420,326,160,183,-0.998535,0.000000,0.095215,1.583750,-3.745000,-0.192500,-1.856244,-0.180602,-0.884030,,162,143,129,116,913,,,,,,,,,-54,15:18:52.652,
,,46433,6440,327,159,183,-0.995605,-0.002930,0.091309,1.557500,-3.727500,-0.183750,-1.856244,-0.180602,-0.884030,,161,143,129,117,913,,,,,,,,,-54,15:18:52.653,
,,46434,6460,327,160,183,-0.998047,-0.002930,0.091797,1.470000,-3.780000,-0.218750,-1.856098,-0.185128,-0.883884,,161,141,127,115,913,,,,,,,,,-54,15:18:52.682,
,,46435,6480,327,160,183,-0.998535,-0.001953,0.092773,1.382500,-3.780000,-0.166250,-1.855660,-0.183230,-0.895418,,161,142,128,115,913,,,,,,,,,-54,15:18:52.712,
,,46436,6500,327,160,184,-0.995605,-0.001953,0.090332,1.356250,-3.858750,-0.157500,-1.852302,-0.183084,-0.896294,,159,143,127,116,913,,,,,,,,,-54,15:18:52.713,
,,46437,6520,325,161,182,-0.995605,0.000977,0.093262,1.470000,-3.832500,-0.227500,-1.856390,-0.183960,-0.881548,,160,142,129,117,914,,,,,,,,,-54,15:18:52.742,
,,46438,6540,325,159,183,-0.999512,-0.000977,0.094727,1.356250,-3.745000,-0.192500,-1.856390,-0.183960,-0.881548,,164,143,130,117,914,,,,,,,,,-54,15:18:52.772,
,,46439,6560,326,161,182,-0.995605,-0.001465,0.094238,1.128750,-3.771250,-0.306250,-1.855076,-0.182792,-0.891476,,162,143,127,116,912,,,,,,,,,-54,15:18:52.773,
,,46440,6580,327,157,182,-0.997559,-0.003418,0.093750,1.190000,-3.841250,-0.315000,-1.859018,-0.177828,-0.887388,,161,142,128,117,913,,,,,,,,,-54,15:18:52.802,
,,46441,6600,326,160,183,-0.994141,-0.003906,0.091797,1.207500,-3.841250,-0.201250,-1.855806,-0.184690,-0.888702,,161,142,126,115,913,,,,,,,,,-54,15:18:52.832,
,,46442,6620,327,158,183,-0.997070,-0.002930,0.093262,1.373750,-3.885000,-0.253750,-1.857850,-0.184106,-0.889286,,161,144,128,116,914,,,,,,,,,-54,15:18:52.833,
,,46443,6640,326,158,183,-0.994629,-0.002930,0.094727,1.391250,-3.815000,-0.192500,-1.857850,-0.184106,-0.889286,,161,144,127,117,914,,,,,,,,,-54,15:18:52.862,
,,46444,6660,327,158,182,-0.997070,-0.002441,0.093750,1.338750,-3.823750,-0.175000,-1.856682,-0.181624,-0.888410,,162,142,126,114,913,,,,,,,,,-54,15:18:52.892,
,,46445,6680,326,158,182,-0.998047,0.000000,0.095215,1.181250,-3.701250,-0.253750,-1.853324,-0.182938,-0.879796,,161,143,127,116,913,,,,,,,,,-54,15:18:52.893,
,,46446,6700,327,159,181,-0.999023,-0.003418,0.092773,1.233750,-3.771250,-0.245000,-1.857412,-0.182792,-0.886366,,159,142,128,116,914,,,,,,,,,-54,15:18:52.921,
,,46447,6720,326,161,184,-0.996582,-0.003418,0.090332,1.356250,-3.753750,-0.201250,-1.852156,-0.183522,-0.889432,,161,141,128,117,912,,,,,,,,,-54,15:18:52.952,
,,46448,6740,327,160,183,-0.999023,-0.000488,0.095703,1.338750,-3.762500,-0.157500,-1.852156,-0.183522,-0.889432,,161,144,130,117,914,,,,,,,,,-54,15:18:52.953,
,,46449,6760,326,161,182,-1.000488,-0.000977,0.093262,1.391250,-3.771250,-0.157500,-1.857120,-0.189070,-0.888702,,162,142,129,115,914,,,,,,,,,-54,15:18:52.982,
,,46450,6780,326,160,182,-0.997070,-0.002441,0.089844,1.382500,-3.797500,-0.122500,-1.854200,-0.179726,-0.885782,,161,141,126,116,913,,,,,,,,,-54,15:18:53.010,
,,46451,6800,328,160,183,-0.997070,-0.002930,0.092773,1.426250,-3.806250,-0.175000,-1.853908,-0.181040,-0.881986,,161,141,129,116,914,,,,,,,,,-54,15:18:53.019,
,,46452,6820,327,161,182,-0.997070,-0.001465,0.090820,1.181250,-3.823750,-0.210000,-1.853178,-0.184252,-0.896294,,161,143,126,117,914,,,,,,,,,-54,15:18:53.043,
,,46453,6840,326,159,184,-0.995117,0.000977,0.097168,1.155000,-3.771250,-0.253750,-1.853178,-0.184252,-0.896294,,160,142,129,116,914,,,,,,,,,-54,15:18:53.073,
,,46454,6860,328,159,183,-0.995605,-0.002930,0.094727,1.321250,-3.753750,-0.271250,-1.853762,-0.181624,-0.886950,,161,141,126,116,914,,,,,,,,,-54,15:18:53.073,
,,46455,6880,326,159,183,-0.999023,-0.002930,0.091797,1.312500,-3.753750,-0.148750,-1.850550,-0.181624,-0.891768,,160,141,125,116,913,,,,,,,,,-54,15:18:53.102,
,,46456,6900,327,159,181,-0.995117,-0.001953,0.094727,1.260000,-3.850000,-0.210000,-1.852302,-0.184982,-0.876730,,161,141,128,115,913,,,,,,,,,-54,15:18:53.133,
,,46457,6920,327,161,182,-0.996094,-0.004883,0.090332,1.330000,-3.858750,-0.288750,-1.854054,-0.183960,-0.883592,,160,142,128,116,913,,,,,,,,,-54,15:18:53.162,
,,46458,6940,328,162,181,-0.997070,-0.002930,0.094727,1.207500,-3.727500,-0.253750,-1.854054,-0.183960,-0.883592,,161,143,128,115,913,,,,,,,,,-54,15:18:53.163,
,,46459,6960,328,159,183,-0.996094,-0.007324,0.090332,1.356250,-3.902500,-0.236250,-1.854930,-0.184398,-0.886220,,160,141,128,116,914,,,,,,,,,-54,15:18:53.190,
,,46460,6980,337,163,199,-0.997070,-0.001465,0.094727,1.347500,-3.771250,-0.210000,-1.854638,-0.185128,-0.884760,,174,152,137,123,915,,,,,,,,,-54,15:18:53.221,
,,46461,7000,330,161,186,-0.998047,-0.002930,0.090332,1.268750,-3.788750,-0.183750,-1.850988,-0.186734,-0.888702,,166,148,132,121,913,,,,,,,,,-54,15:18:53.251,
,,46462,7020,327,159,184,-0.995605,-0.001465,0.092773,1.531250,-3.727500,-0.183750,-1.855514,-0.186004,-0.890746,,163,144,130,116,913,,,,,,,,,-54,15:18:53.252,
,,46463,7040,327,159,181,-0.998535,-0.002930,0.090820,1.505000,-3.745000,-0.192500,-1.855514,-0.186004,-0.890746,,162,144,127,115,914,,,,,,,,,-54,15:18:53.282,
,,46464,7060,327,159,182,-0.997559,-0.001953,0.093262,1.391250,-3.850000,-0.210000,-1.854492,-0.181040,-0.886658,,161,142,126,116,913,,,,,,,,,-54,15:18:53.312,
,,46465,7080,327,159,182,-0.993652,-0.001465,0.096680,1.513750,-3.753750,-0.210000,-1.853178,-0.186588,-0.871182,,161,144,128,116,915,,,,,,,,,-54,15:18:53.313,
,,46466,7100,327,160,185,-0.996582,-0.002930,0.092285,1.312500,-3.832500,-0.245000,-1.854930,-0.186588,-0.897024,,161,142,127,116,913,,,,,,,,,-54,15:18:53.342,
,,46467,7120,328,158,183,-0.994141,0.002930,0.096680,1.400000,-3.832500,-0.166250,-1.850404,-0.182500,-0.877606,,161,141,127,116,915,,,,,,,,,-54,15:18:53.372,
,,46468,7140,328,158,183,-0.996094,0.000488,0.095703,1.426250,-3.745000,-0.140000,-1.854784,-0.184690,-0.886220,,162,142,127,116,912,,,,,,,,,-54,15:18:53.373,
,,46469,7160,327,158,182,-0.996582,-0.002930,0.090332,1.513750,-3.762500,-0.122500,-1.854784,-0.184690,-0.886220,,162,142,128,116,914,,,,,,,,,-54,15:18:53.404,
,,46470,7180,325,160,184,-0.994629,-0.005371,0.095215,1.268750,-3.718750,-0.218750,-1.854638,-0.187318,-0.882716,,161,142,128,117,914,,,,,,,,,-54,15:18:53.432,
,,46471,7200,326,159,183,-0.992188,-0.003906,0.090332,0.927500,-3.937500,-0.253750,-1.854346,-0.184690,-0.887242,,161,144,130,116,914,,,,,,,,,-54,15:18:53.433,
,,46472,7220,328,160,184,-0.996582,-0.002441,0.092773,1.225000,-3.771250,-0.183750,-1.854784,-0.178412,-0.878482,,161,142,127,116,912,,,,,,,,,-54,15:18:53.460,
,,46473,7240,325,158,183,-0.994629,-0.003418,0.091797,1.478750,-3.832500,-0.201250,-1.853616,-0.179580,-0.882132,,161,142,127,114,915,,,,,,,,,-54,15:18:53.491,
,,46474,7260,326,159,183,-1.000488,-0.001465,0.091309,1.277500,-3.797500,-0.210000,-1.853616,-0.179580,-0.882132,,161,141,125,116,912,,,,,,,,,-54,15:18:53.492,
,,46475,7280,327,159,182,-0.999023,-0.001465,0.094727,1.295000,-3.727500,-0.192500,-1.848944,-0.182500,-0.880088,,162,144,129,116,916,,,,,,,,,-54,15:18:53.521,
,,46476,7300,328,160,181,-0.997559,-0.000488,0.097168,1.321250,-3.832500,-0.245000,-1.850404,-0.181624,-0.874102,,161,142,129,117,914,,,,,,,,,-54,15:18:53.552,
,,46477,7320,327,158,182,-0.997559,-0.006836,0.089844,1.225000,-3.771250,-0.306250,-1.851426,-0.177244,-0.885344,,160,142,128,117,912,,,,,,,,,-54,15:18:53.553,
,,46478,7340,327,159,183,-0.994629,0.000977,0.096191,1.373750,-3.771250,-0.236250,-1.848214,-0.182062,-0.887096,,160,142,128,116,914,,,,,,,,,-54,15:18:53.582,
,,46479,7360,326,161,183,-0.996582,-0.002441,0.089844,1.216250,-3.832500,-0.236250,-1.848214,-0.182062,-0.887096,,161,142,127,115,913,,,,,,,,,-54,15:18:53.612,
,,46480,7380,327,159,181,-0.998535,-0.004395,0.089844,1.382500,-3.850000,-0.236250,-1.849674,-0.182646,-0.884030,,162,144,128,116,914,,,,,,,,,-54,15:18:53.613,
,,46481,7400,326,157,182,-0.998047,-0.000977,0.094727,1.382500,-3.745000,-0.166250,-1.846316,-0.184982,-0.871766,,163,142,130,117,914,,,,,,,,,-54,15:18:53.642,
,,46482,7420,325,159,183,-0.994629,-0.000977,0.090332,1.400000,-3.762500,-0.122500,-1.846024,-0.182938,-0.891622,,161,143,130,117,914,,,,,,,,,-54,15:18:53.672,
,,46483,7440,326,161,185,-0.998047,-0.002441,0.089844,1.321250,-3.823750,-0.175000,-1.848944,-0.183376,-0.881840,,159,141,128,116,914,,,,,,,,,-54,15:18:53.673,
,,46484,7460,327,158,182,-0.999023,0.000000,0.095703,1.382500,-3.701250,-0.245000,-1.848944,-0.183376,-0.881840,,160,142,128,115,913,,,,,,,,,-54,15:18:53.703,
,,46485,7480,327,162,181,-0.998535,-0.003418,0.092773,1.417500,-3.902500,-0.175000,-1.849090,-0.182354,-0.884030,,161,143,128,117,914,,,,,,,,,-54,15:18:53.732,
,,46486,7500,326,160,183,-0.997559,-0.001465,0.093262,1.592500,-3.815000,-0.035000,-1.851718,-0.184252,-0.890454,,161,144,128,116,914,,,,,,,,,-54,15:18:53.733,
,,46487,7520,326,161,183,-0.997070,-0.002930,0.092773,1.452500,-3.788750,-0.131250,-1.850550,-0.183814,-0.892352,,162,144,130,116,913,,,,,,,,,-54,15:18:53.762,
,,46488,7540,327,160,182,-0.999023,0.001465,0.093262,1.268750,-3.806250,-0.157500,-1.851572,-0.184836,-0.885052,,162,143,128,115,914,,,,,,,,,-54,15:18:53.792,
,,46489,7560,325,160,182,-0.996094,-0.004883,0.092285,1.155000,-3.876250,-0.306250,-1.851572,-0.184836,-0.885052,,161,140,126,115,914,,,,,,,,,-54,15:18:53.821,
,,46490,7580,328,162,182,-0.998047,-0.003906,0.092285,1.102500,-3.788750,-0.253750,-1.853178,-0.179434,-0.880964,,161,144,129,114,914,,,,,,,,,-54,15:18:53.822,
,,46491,7600,327,159,183,-0.997070,-0.002441,0.092285,1.303750,-3.718750,-0.201250,-1.850112,-0.181186,-0.877752,,162,144,130,117,914,,,,,,,,,-54,15:18:53.852,
,,46492,7620,327,160,184,-0.995605,0.002441,0.098633,1.233750,-3.736250,-0.227500,-1.847776,-0.183814,-0.880380,,162,143,129,116,913,,,,,,,,,-54,15:18:53.853,
,,46493,7640,328,159,185,-0.998535,-0.001465,0.093262,1.268750,-3.780000,-0.175000,-1.849090,-0.182938,-0.888264,,161,142,128,116,913,,,,,,,,,-54,15:18:53.882,
,,46494,7660,326,158,182,-0.995605,-0.002930,0.089355,1.277500,-3.745000,-0.227500,-1.849382,-0.180602,-0.890308,,161,142,125,115,912,,,,,,,,,-54,15:18:53.911,
,,46495,7680,328,159,183,-0.997070,-0.006836,0.091797,1.216250,-3.815000,-0.271250,-1.849382,-0.180602,-0.890308,,161,142,129,116,913,,,,,,,,,-54,15:18:53.912,
,,46496,7700,326,160,182,-0.994629,-0.000488,0.091309,1.181250,-3.815000,-0.236250,-1.852010,-0.185566,-0.881256,,160,143,129,118,913,,,,,,,,,-54,15:18:53.942,
,,46497,7720,327,160,183,-1.000977,0.001465,0.091309,1.085000,-3.841250,-0.271250,-1.847338,-0.184252,-0.883008,,161,143,130,116,911,,,,,,,,,-54,15:18:53.971,
,,46498,7740,325,162,184,-0.996582,0.000977,0.096680,1.006250,-3.745000,-0.323750,-1.846024,-0.187026,-0.892644,,161,142,128,115,914,,,,,,,,,-54,15:18:53.971,
,,46499,7760,326,159,184,-0.998047,-0.002930,0.090820,1.067500,-3.753750,-0.280000,-1.850258,-0.182792,-0.882570,,161,142,127,115,914,,,,,,,,,-54,15:18:54.002,
,,46500,7780,326,160,184,-0.999512,-0.002930,0.092773,1.505000,-3.780000,-0.157500,-1.850258,-0.182792,-0.882570,,160,142,127,117,913,,,,,,,,,-54,15:18:54.032,
,,46501,7800,329,161,182,-0.996582,-0.001953,0.093262,1.548750,-3.841250,-0.087500,-1.850696,-0.182646,-0.890016,,162,143,129,118,914,,,,,,,,,-54,15:18:54.032,
,,46502,7820,326,159,182,-0.997559,-0.002441,0.091309,1.548750,-3.727500,-0.087500,-1.850842,-0.183522,-0.870598,,161,143,129,116,914,,,,,,,,,-54,15:18:54.062,
,,46503,7840,328,160,182,-0.995605,0.002441,0.098633,1.347500,-3.780000,-0.227500,-1.854784,-0.180894,-0.886512,,162,142,129,115,913,,,,,,,,,-54,15:18:54.092,
,,46504,7860,326,159,183,-0.997070,-0.002441,0.092285,1.181250,-3.788750,-0.236250,-1.857120,-0.185128,-0.871766,,161,141,126,115,912,,,,,,,,,-54,15:18:54.092,
,,46505,7880,326,161,183,-0.994629,0.001953,0.093750,1.023750,-3.841250,-0.210000,-1.857120,-0.185128,-0.871766,,162,141,128,115,914,,,,,,,,,-53,15:18:54.122,
,,46506,7900,330,160,182,-0.996582,-0.003906,0.093262,1.172500,-3.858750,-0.262500,-1.853324,-0.183960,-0.876146,,162,142,128,116,914,,,,,,,,,-53,15:18:54.151,
,,46507,7920,327,159,183,-0.996094,-0.000977,0.094238,1.435000,-3.771250,-0.192500,-1.852156,-0.181186,-0.879650,,160,142,127,115,914,,,,,,,,,-53,15:18:54.151,
,,46508,7940,327,160,183,-0.997070,0.002930,0.096680,1.417500,-3.780000,-0.131250,-1.856390,-0.182792,-0.902134,,161,141,126,116,914,,,,,,,,,-53,15:18:54.181,
,,46509,7960,328,160,181,-0.996582,-0.003418,0.090332,1.338750,-3.780000,-0.245000,-1.853470,-0.180164,-0.879504,,158,141,127,115,914,,,,,,,,,-53,15:18:54.210,
,,46510,7980,328,161,183,-0.998047,-0.001465,0.093262,1.295000,-3.823750,-0.218750,-1.853470,-0.180164,-0.879504,,160,142,128,117,914,,,,,,,,,-53,15:18:54.240,
,,46511,8000,326,160,184,-0.995605,-0.002441,0.090332,1.225000,-3.797500,-0.271250,-1.851280,-0.175346,-0.882132,,160,142,129,117,914,,,,,,,,,-53,15:18:54.271,
,,46512,8020,327,158,182,-0.998047,-0.002930,0.090820,1.050000,-3.815000,-0.236250,-1.847922,-0.178996,-0.868116,,160,140,126,114,913,,,,,,,,,-53,15:18:54.271,
,,46513,8040,327,161,183,-0.997559,-0.001953,0.094238,1.076250,-3.815000,-0.271250,-1.851426,-0.179434,-0.881256,,162,141,127,116,912,,,,,,,,,-53,15:18:54.301,
,,46514,8060,327,159,183,-0.995117,-0.003418,0.094727,1.058750,-3.841250,-0.236250,-1.853616,-0.180310,-0.899506,,162,141,129,117,914,,,,,,,,,-53,15:18:54.331,
,,46515,8080,326,159,184,-0.996094,-0.002930,0.092285,1.181250,-3.788750,-0.227500,-1.853616,-0.180310,-0.899506,,162,144,129,117,912,,,,,,,,,-53,15:18:54.331,
,,46516,8100,326,160,183,-0.995605,-0.002930,0.093262,1.207500,-3.815000,-0.148750,-1.853908,-0.181332,-0.877752,,159,142,127,116,911,,,,,,,,,-53,15:18:54.361,
,,46517,8120,325,160,183,-0.997070,-0.004395,0.090332,1.216250,-3.762500,-0.245000,-1.856244,-0.183084,-0.868992,,161,142,126,115,913,,,,,,,,,-53,15:18:54.393,
,,46518,8140,325,158,182,-1.000000,-0.001465,0.093262,1.137500,-3.640000,-0.227500,-1.852156,-0.184982,-0.887680,,161,141,127,114,913,,,,,,,,,-53,15:18:54.422,
,,46519,8160,328,161,184,-0.992676,-0.000977,0.094238,1.251250,-3.858750,-0.262500,-1.854784,-0.186880,-0.875708,,161,143,128,116,913,,,,,,,,,-53,15:18:54.423,
,,46520,8180,327,159,183,-0.997070,-0.002441,0.090332,1.286250,-3.832500,-0.201250,-1.854784,-0.186880,-0.875708,,161,143,129,118,912,,,,,,,,,-53,15:18:54.481,
,,46521,8200,326,158,185,-1.001465,0.002441,0.093262,1.487500,-3.788750,-0.131250,-1.853908,-0.183522,-0.894834,,162,142,129,116,913,,,,,,,,,-53,15:18:54.482,
,,46522,8220,326,160,182,-1.000977,0.001465,0.094238,1.400000,-3.736250,-0.148750,-1.850988,-0.183522,-0.880964,,162,143,128,115,913,,,,,,,,,-53,15:18:54.483,
,,46523,8240,327,161,183,-0.996582,-0.001953,0.093750,1.443750,-3.893750,-0.262500,-1.854784,-0.182792,-0.884176,,161,142,128,115,914,,,,,,,,,-53,15:18:54.511,
,,46524,8260,327,160,183,-0.997559,-0.005859,0.091797,1.295000,-3.841250,-0.253750,-1.853470,-0.178266,-0.886804,,161,141,128,117,914,,,,,,,,,-53,15:18:54.512,
,,46525,8280,327,159,184,-0.997559,-0.002930,0.091797,1.347500,-3.815000,-0.262500,-1.853470,-0.178266,-0.886804,,160,143,129,115,912,,,,,,,,,-53,15:18:54.542,
,,46526,8300,327,159,182,-0.998535,-0.003906,0.092773,1.426250,-3.806250,-0.218750,-1.853470,-0.178558,-0.886220,,162,142,128,117,914,,,,,,,,,-53,15:18:54.572,
,,46527,8320,327,159,185,-0.997070,-0.003906,0.089355,1.277500,-3.718750,-0.122500,-1.852302,-0.180602,-0.875708,,161,142,127,117,913,,,,,,,,,-53,15:18:54.573,
,,46528,8340,326,160,184,-0.998535,0.000000,0.095703,1.286250,-3.762500,-0.306250,-1.853616,-0.178558,-0.883738,,161,142,126,115,912,,,,,,,,,-53,15:18:54.601,
,,46529,8360,328,159,183,-0.994141,0.003906,0.097168,1.356250,-3.762500,-0.218750,-1.852740,-0.180748,-0.879504,,160,141,128,116,913,,,,,,,,,-53,15:18:54.632,
,,46530,8380,328,160,184,-0.995117,-0.002441,0.088379,1.330000,-3.762500,-0.175000,-1.853762,-0.175346,-0.873518,,161,141,127,116,913,,,,,,,,,-53,15:18:54.632,
,,46531,8400,328,159,182,-0.999512,0.000488,0.097656,1.391250,-3.806250,-0.218750,-1.853762,-0.175346,-0.873518,,162,144,128,117,912,,,,,,,,,-53,15:18:54.661,
,,46532,8420,326,161,183,-0.995605,-0.003418,0.089355,1.233750,-3.727500,-0.201250,-1.851134,-0.176076,-0.888848,,160,144,127,117,915,,,,,,,,,-53,15:18:54.690,
,,46533,8440,326,159,183,-0.996094,-0.002930,0.091797,1.137500,-3.745000,-0.245000,-1.855076,-0.181332,-0.882132,,160,142,125,115,913,,,,,,,,,-53,15:18:54.691,
,,46534,8460,326,158,182,-0.995605,-0.002441,0.093750,1.041250,-3.718750,-0.306250,-1.852156,-0.173156,-0.875416,,162,143,127,115,913,,,,,,,,,-53,15:18:54.720,
,,46535,8480,327,158,184,-0.996582,-0.003418,0.090820,1.146250,-3.806250,-0.297500,-1.850550,-0.174908,-0.883884,,161,143,129,117,914,,,,,,,,,-53,15:18:54.751,
,,46536,8500,328,159,183,-0.995605,0.001953,0.096191,1.093750,-3.806250,-0.271250,-1.850550,-0.174908,-0.883884,,162,145,127,116,914,,,,,,,,,-53,15:18:54.751,
,,46537,8520,328,160,183,-1.000488,-0.000977,0.091797,0.997500,-3.893750,-0.306250,-1.853616,-0.182354,-0.892352,,162,143,127,118,914,,,,,,,,,-53,15:18:54.780,
,,46538,8540,327,160,184,-0.993652,-0.002441,0.091797,1.093750,-3.841250,-0.218750,-1.854492,-0.178558,-0.891330,,161,142,127,115,913,,,,,,,,,-53,15:18:54.811,
,,46539,8560,329,160,181,-1.000977,0.000488,0.091797,1.321250,-3.718750,-0.070000,-1.852010,-0.178266,-0.873080,,161,141,128,117,911,,,,,,,,,-53,15:18:54.811,
,,46540,8580,326,161,183,-0.999512,-0.002441,0.093750,1.417500,-3.727500,-0.061250,-1.851426,-0.176660,-0.887680,,161,141,128,117,912,,,,,,,,,-53,15:18:54.840,
,,46541,8600,327,159,183,-0.992188,0.000000,0.096191,1.653750,-3.841250,-0.052500,-1.851426,-0.176660,-0.887680,,160,143,127,117,913,,,,,,,,,-53,15:18:54.871,
,,46542,8620,326,159,184,-0.994629,-0.003906,0.091797,1.382500,-3.876250,-0.201250,-1.850550,-0.179142,-0.880526,,162,143,130,115,912,,,,,,,,,-53,15:18:54.872,
,,46543,8640,325,159,183,-0.996094,-0.003906,0.090820,1.172500,-3.841250,-0.253750,-1.854638,-0.177682,-0.875708,,161,142,126,116,914,,,,,,,,,-53,15:18:54.931,
,,46544,8660,327,161,183,-0.997559,0.000000,0.095215,1.181250,-3.815000,-0.245000,-1.851572,-0.178704,-0.882716,,161,142,126,116,913,,,,,,,,,-53,15:18:54.932,
,,46545,8680,328,160,184,-0.998535,-0.004883,0.091309,1.155000,-3.788750,-0.236250,-1.853032,-0.176076,-0.885198,,161,143,128,116,913,,,,,,,,,-53,15:18:54.933,
,,46546,8700,328,159,185,-0.994141,-0.001465,0.092285,1.172500,-3.823750,-0.218750,-1.853032,-0.176076,-0.885198,,162,143,130,117,914,,,,,,,,,-53,15:18:54.960,
,,46547,8720,326,159,183,-1.014160,0.026855,0.102051,6.203750,-2.738750,0.612500,-1.857704,-0.179434,-0.885928,,159,142,125,115,913,,,,,,,,,-53,15:18:54.991,
,,46548,8740,325,161,183,-1.012695,0.001953,0.092285,0.953750,-3.412500,-0.175000,-1.856536,-0.172864,-0.872642,,161,142,127,115,914,,,,,,,,,-53,15:18:55.021,
,,46549,8760,328,160,183,-1.003418,0.001953,0.091309,0.875000,-3.438750,-0.350000,-1.852594,-0.183668,-0.883154,,161,142,126,115,914,,,,,,,,,-53,15:18:55.051,
,,46550,8780,327,161,184,-0.995605,-0.001465,0.093750,1.067500,-3.465000,-0.245000,-1.852448,-0.186588,-0.891622,,162,144,129,117,913,,,,,,,,,-53,15:18:55.052,
,,46551,8800,326,161,184,-0.995605,-0.003906,0.091797,1.146250,-3.745000,-0.227500,-1.852448,-0.186588,-0.891622,,161,142,129,116,916,,,,,,,,,-53,15:18:55.052,
,,46552,8820,325,160,184,-0.995117,-0.004395,0.089355,1.443750,-3.736250,-0.140000,-1.853762,-0.184106,-0.880234,,161,142,128,115,914,,,,,,,,,-53,15:18:55.081,
,,46553,8840,325,159,182,-0.997559,-0.005371,0.092773,1.802500,-3.675000,0.026250,-1.853324,-0.180456,-0.886950,,161,142,128,116,914,,,,,,,,,-53,15:18:55.111,
,,46554,8860,326,160,183,-0.995605,-0.122070,0.089844,1.356250,-3.867500,-0.183750,-1.855806,-0.180894,-0.879942,,161,142,128,117,914,,,,,,,,,-53,15:18:55.111,
,,46555,8880,327,160,183,-0.997070,-0.001465,0.088867,1.408750,-3.762500,-0.183750,-1.853908,-0.182500,-0.886512,,161,142,129,117,914,,,,,,,,,-53,15:18:55.141,
,,46556,8900,328,159,183,-0.995117,-0.001953,0.092773,1.260000,-3.745000,-0.280000,-1.852740,-0.182354,-0.883884,,161,145,129,116,913,,,,,,,,,-53,15:18:55.171,
,,46557,8920,327,161,185,-0.996094,-0.002930,0.094238,1.225000,-3.745000,-0.262500,-1.852740,-0.182354,-0.883884,,162,142,128,116,914,,,,,,,,,-53,15:18:55.171,
,,46558,8940,336,162,197,-0.996094,-0.003418,0.092285,1.303750,-3.858750,-0.105000,-1.855514,-0.182354,-0.886950,,174,154,136,124,914,,,,,,,,,-53,15:18:55.233,
,,46559,8960,329,160,187,-0.997070,-0.002930,0.093750,1.303750,-3.885000,-0.122500,-1.855952,-0.176806,-0.892206,,166,147,132,121,915,,,,,,,,,-53,15:18:55.234,
,,46560,8980,328,159,184,-0.996094,-0.001953,0.094238,0.953750,-3.788750,-0.323750,-1.857704,-0.180018,-0.888118,,163,144,129,117,914,,,,,,,,,-53,15:18:55.261,
,,46561,9000,328,160,181,-0.996582,-0.003906,0.091797,0.796250,-3.736250,-0.297500,-1.853324,-0.179872,-0.894104,,162,143,127,116,913,,,,,,,,,-53,15:18:55.292,
,,46562,9020,326,160,183,-0.997070,-0.007812,0.094238,1.260000,-3.797500,-0.218750,-1.853324,-0.179872,-0.894104,,162,142,129,117,914,,,,,,,,,-53,15:18:55.293,
,,46563,9040,326,159,183,-0.995117,-0.005371,0.092285,1.478750,-3.762500,-0.078750,-1.849236,-0.181186,-0.895418,,162,143,128,115,913,,,,,,,,,-53,15:18:55.322,
,,46564,9060,328,158,184,-0.993652,-0.001465,0.088379,1.688750,-3.718750,-0.087500,-1.848652,-0.175346,-0.894834,,161,141,128,116,914,,,,,,,,,-53,15:18:55.352,
,,46565,9080,327,159,184,-0.993652,0.005371,0.095703,1.837500,-3.683750,-0.017500,-1.852448,-0.178704,-0.874394,,164,142,127,115,913,,,,,,,,,-53,15:18:55.353,
,,46566,9100,327,160,182,-0.994629,0.002930,0.095215,1.548750,-3.745000,-0.201250,-1.848506,-0.178850,-0.879358,,162,141,125,115,913,,,,,,,,,-53,15:18:55.381,
,,46567,9120,328,158,181,-0.996094,-0.003906,0.093262,1.260000,-3.876250,-0.280000,-1.848506,-0.178850,-0.879358,,162,143,127,115,913,,,,,,,,,-53,15:18:55.412,
,,46568,9140,328,159,181,-0.995605,-0.004395,0.093262,1.190000,-3.823750,-0.350000,-1.849966,-0.183814,-0.877898,,161,143,130,116,913,,,,,,,,,-53,15:18:55.413,
,,46569,9160,327,161,184,-0.992676,-0.001465,0.095703,1.443750,-3.832500,-0.393750,-1.849382,-0.177974,-0.881840,,162,142,129,115,913,,,,,,,,,-53,15:18:55.441,
,,46570,9180,326,159,183,-0.997559,-0.001953,0.091309,1.303750,-3.850000,-0.455000,-1.853470,-0.176514,-0.873226,,162,142,128,117,915,,,,,,,,,-53,15:18:55.470,
,,46571,9200,328,159,182,-0.993652,-0.001953,0.096191,1.032500,-3.788750,-0.376250,-1.856390,-0.183084,-0.885782,,160,143,126,116,913,,,,,,,,,-53,15:18:55.471,
,,46572,9220,327,158,183,-0.997070,0.001953,0.098633,1.120000,-3.823750,-0.288750,-1.856390,-0.183084,-0.885782,,161,142,127,115,914,,,,,,,,,-53,15:18:55.502,
,,46573,9240,327,160,184,-0.995605,-0.002930,0.094727,1.093750,-3.823750,-0.332500,-1.858872,-0.179872,-0.883446,,161,142,129,115,913,,,,,,,,,-53,15:18:55.531,
,,46574,9260,327,159,184,-0.995605,-0.003418,0.092773,1.268750,-3.710000,-0.323750,-1.858580,-0.178850,-0.877606,,162,143,128,118,913,,,,,,,,,-53,15:18:55.532,
,,46575,9280,328,160,183,-0.995605,-0.003418,0.094238,1.277500,-3.823750,-0.236250,-1.855368,-0.177682,-0.892060,,160,142,127,117,914,,,,,,,,,-53,15:18:55.560,
,,46576,9300,328,159,184,-1.000000,-0.001953,0.091797,1.373750,-3.806250,-0.271250,-1.854492,-0.177536,-0.880964,,160,142,127,115,913,,,,,,,,,-53,15:18:55.591,
,,46577,9320,328,160,183,-0.995117,-0.000977,0.090332,1.478750,-3.736250,-0.271250,-1.854492,-0.177536,-0.880964,,160,142,128,115,914,,,,,,,,,-53,15:18:55.621,
,,46578,9340,326,160,184,-0.992188,-0.000977,0.094238,1.338750,-3.736250,-0.236250,-1.852010,-0.174032,-0.887096,,162,142,129,115,912,,,,,,,,,-53,15:18:55.651,
,,46579,9360,327,158,183,-0.993652,0.002441,0.093262,1.478750,-3.788750,-0.175000,-1.856098,-0.171988,-0.883154,,161,143,128,118,914,,,,,,,,,-53,15:18:55.651,
,,46580,9380,326,162,183,-0.994629,0.003906,0.098633,1.277500,-3.876250,-0.341250,-1.854200,-0.176660,-0.893374,,161,143,129,116,913,,,,,,,,,-53,15:18:55.651,
,,46581,9400,326,161,183,-0.997070,0.001465,0.097168,1.172500,-3.806250,-0.385000,-1.854200,-0.181624,-0.888848,,161,143,129,117,913,,,,,,,,,-53,15:18:55.680,
,,46582,9420,327,161,182,-0.998047,-0.001465,0.089355,1.513750,-3.780000,-0.227500,-1.854200,-0.181624,-0.888848,,161,142,128,116,914,,,,,,,,,-53,15:18:55.711,
,,46583,9440,327,159,184,-0.994629,0.000488,0.096191,1.277500,-3.902500,-0.122500,-1.853324,-0.183668,-0.890892,,161,143,128,117,914,,,,,,,,,-53,15:18:55.712,
,,46584,9460,328,160,183,-0.996582,-0.005371,0.087891,0.682500,-3.718750,-0.376250,-1.853178,-0.182500,-0.890892,,161,143,130,116,913,,,,,,,,,-53,15:18:55.740,
,,46585,9480,328,160,183,-1.000977,-0.001465,0.093750,1.050000,-3.727500,-0.385000,-1.857120,-0.182792,-0.892060,,162,143,130,116,913,,,,,,,,,-53,15:18:55.771,
,,46586,9500,327,159,183,-0.998047,0.002930,0.097656,1.338750,-3.657500,-0.166250,-1.852886,-0.184106,-0.887388,,162,143,128,115,912,,,,,,,,,-53,15:18:55.771,
,,46587,9520,324,159,182,-0.993652,-0.003906,0.091797,1.330000,-3.797500,-0.192500,-1.855514,-0.176660,-0.882862,,161,143,127,115,914,,,,,,,,,-53,15:18:55.801,
,,46588,9540,328,162,182,-0.993652,-0.000977,0.089844,1.338750,-3.727500,-0.262500,-1.855514,-0.176660,-0.882862,,162,142,127,116,913,,,,,,,,,-53,15:18:55.831,
,,46589,9560,326,159,184,-0.995605,-0.003418,0.095215,1.321250,-3.683750,-0.315000,-1.859164,-0.183522,-0.890746,,162,142,129,117,914,,,,,,,,,-53,15:18:55.832,
,,46590,9580,326,162,183,-0.998535,-0.001465,0.096191,1.627500,-3.675000,-0.218750,-1.850696,-0.178850,-0.891768,,160,142,129,116,913,,,,,,,,,-53,15:18:55.860,
,,46591,9600,325,159,183,-0.995605,-0.002930,0.091797,1.890000,-3.666250,-0.218750,-1.857266,-0.178996,-0.885636,,160,141,127,116,913,,,,,,,,,-53,15:18:55.891,
,,46592,9620,328,160,184,-0.998535,-0.002930,0.093750,1.513750,-3.780000,-0.507500,-1.852010,-0.183668,-0.891622,,162,141,128,116,913,,,,,,,,,-53,15:18:55.892,
,,46593,9640,328,161,182,-0.999512,-0.003418,0.092773,0.787500,-3.710000,-0.595000,-1.852010,-0.183668,-0.891622,,161,143,126,117,914,,,,,,,,,-53,15:18:55.920,
,,46594,9660,327,160,183,-0.998047,-0.003418,0.090820,1.645000,-3.438750,-0.542500,-1.855368,-0.180456,-0.880818,,161,142,130,117,913,,,,,,,,,-53,15:18:55.950,
,,46595,9680,327,160,182,-0.996094,0.002441,0.098145,1.820000,-3.850000,-0.157500,-1.857996,-0.183522,-0.882132,,161,144,127,117,913,,,,,,,,,-53,15:18:55.951,
,,46596,9700,326,160,182,-0.992676,0.001465,0.094238,0.918750,-3.972500,-0.341250,-1.856974,-0.178266,-0.884176,,161,142,129,116,913,,,,,,,,,-53,15:18:55.981,
,,46597,9720,326,161,184,-0.997070,-0.003418,0.089844,0.516250,-3.858750,-0.656250,-1.859164,-0.183376,-0.887680,,161,143,126,117,914,,,,,,,,,-53,15:18:56.011,
,,46598,9740,326,160,182,-0.998535,-0.005371,0.091309,0.752500,-3.806250,-0.490000,-1.859164,-0.183376,-0.887680,,161,143,127,116,914,,,,,,,,,-53,15:18:56.012,
,,46599,9760,326,160,182,-0.995605,-0.005371,0.091309,1.225000,-3.858750,-0.157500,-1.853470,-0.182792,-0.887680,,162,143,129,118,914,,,,,,,,,-53,15:18:56.040,
,,46600,9780,328,161,182,-0.998535,-0.002930,0.093750,1.198750,-3.937500,-0.087500,-1.860040,-0.182646,-0.873080,,162,141,128,117,914,,,,,,,,,-53,15:18:56.071,
,,46601,9800,328,160,184,-0.991699,0.000977,0.092773,1.067500,-3.893750,-0.201250,-1.855806,-0.184836,-0.893812,,161,143,128,116,913,,,,,,,,,-53,15:18:56.071,
,,46602,9820,327,160,183,-0.993652,0.000488,0.093262,1.295000,-3.587500,-0.175000,-1.854784,-0.186442,-0.885198,,162,141,127,115,913,,,,,,,,,-53,15:18:56.102,
,,46603,9840,326,160,182,-0.999512,0.000977,0.097168,1.137500,-3.788750,-0.201250,-1.854784,-0.186442,-0.885198,,160,141,128,116,914,,,,,,,,,-53,15:18:56.132,
,,46604,9860,328,160,182,-1.001953,0.002930,0.093262,0.700000,-3.955000,-0.358750,-1.855222,-0.189070,-0.887242,,162,142,131,115,912,,,,,,,,,-53,15:18:56.133,
,,46605,9880,326,158,183,-0.996094,-0.004883,0.090332,0.691250,-3.955000,-0.393750,-1.857266,-0.184106,-0.886074,,160,142,126,118,912,,,,,,,,,-53,15:18:56.162,
,,46606,9900,326,162,184,-0.995117,-0.004883,0.091797,1.067500,-3.780000,-0.236250,-1.851864,-0.184982,-0.882424,,162,143,128,116,912,,,,,,,,,-53,15:18:56.192,
,,46607,9920,328,161,181,-0.995605,-0.004395,0.093262,1.093750,-3.885000,-0.201250,-1.854054,-0.187172,-0.883446,,160,141,128,116,912,,,,,,,,,-53,15:18:56.222,
,,46608,9940,327,159,183,-0.999512,-0.003418,0.093262,0.980000,-3.832500,-0.393750,-1.854054,-0.187172,-0.883446,,162,142,127,116,914,,,,,,,,,-53,15:18:56.252,
,,46609,9960,326,160,183,-0.994141,-0.002930,0.092285,1.198750,-3.736250,-0.210000,-1.851426,-0.189654,-0.887972,,162,141,128,117,913,,,,,,,,,-53,15:18:56.282,
,,46610,9980,328,160,182,-0.993164,0.000000,0.092773,1.347500,-3.780000,-0.245000,-1.852448,-0.186880,-0.890454,,161,141,126,116,914,,,,,,,,,-53,15:18:56.282,
,,46611,10000,326,157,183,-1.001953,0.001953,0.090332,1.373750,-3.762500,-0.070000,-1.849090,-0.186880,-0.884906,,161,143,127,115,914,,,,,,,,,-53,15:18:56.312,
,,46612,10020,328,161,184,-1.000488,-0.000488,0.093750,1.365000,-3.745000,-0.166250,-1.847776,-0.191990,-0.881840,,162,144,128,116,914,,,,,,,,,-53,15:18:56.312,
,,46613,10040,326,161,183,-1.001465,-0.000977,0.093262,1.391250,-3.788750,-0.113750,-1.847776,-0.191990,-0.881840,,162,142,129,117,913,,,,,,,,,-53,15:18:56.342,
,,46614,10060,326,161,182,-0.996094,-0.004883,0.091797,1.312500,-3.797500,-0.096250,-1.852740,-0.190384,-0.890746,,161,143,128,114,913,,,,,,,,,-53,15:18:56.372,
,,46615,10080,327,159,184,-0.995605,-0.005859,0.095215,1.111250,-3.867500,-0.183750,-1.857120,-0.188778,-0.885928,,160,142,129,115,913,,,,,,,,,-53,15:18:56.373,
,,46616,10100,326,160,182,-0.997070,0.001953,0.095215,1.067500,-3.858750,-0.253750,-1.854930,-0.189946,-0.891768,,162,141,127,115,914,,,,,,,,,-53,15:18:56.462,
,,46617,10120,327,161,182,-1.000000,-0.002441,0.091797,1.172500,-3.771250,-0.227500,-1.853762,-0.189800,-0.887826,,161,144,128,116,912,,,,,,,,,-53,15:18:56.463,
,,46618,10140,327,161,182,-0.995117,-0.003906,0.093262,1.496250,-3.745000,-0.140000,-1.853762,-0.189800,-0.887826,,162,143,128,116,914,,,,,,,,,-53,15:18:56.464,
,,46619,10160,326,161,184,-0.990723,0.000488,0.095215,1.697500,-3.788750,-0.043750,-1.853032,-0.192282,-0.891038,,161,143,128,114,915,,,,,,,,,-53,15:18:56.465,
,,46620,10180,326,158,183,-0.994141,-0.001465,0.089355,1.417500,-3.736250,-0.140000,-1.857996,-0.180894,-0.883154,,161,142,126,115,913,,,,,,,,,-53,15:18:56.466,
,,46621,10200,326,161,183,-0.999023,-0.000977,0.096191,1.260000,-3.815000,-0.315000,-1.855076,-0.188048,-0.890308,,161,142,125,115,914,,,,,,,,,-53,15:18:56.491,
,,46622,10220,326,159,183,-0.998047,-0.002930,0.095703,1.356250,-3.710000,-0.218750,-1.852594,-0.183668,-0.888702,,161,143,129,116,914,,,,,,,,,-53,15:18:56.523,
,,46623,10240,325,159,184,-0.992188,-0.000488,0.094727,1.365000,-3.806250,-0.140000,-1.850550,-0.190384,-0.885344,,162,142,129,117,914,,,,,,,,,-53,15:18:56.552,
,,46624,10260,328,159,183,-0.990723,-0.002930,0.097656,1.496250,-3.788750,-0.175000,-1.850550,-0.190384,-0.885344,,161,143,129,116,913,,,,,,,,,-53,15:18:56.553,
,,46625,10280,325,158,182,-0.998047,-0.001953,0.092773,1.443750,-3.841250,-0.148750,-1.849674,-0.187318,-0.889140,,162,143,126,116,914,,,,,,,,,-53,15:18:56.582,
,,46626,10300,327,160,183,-0.997559,-0.003418,0.091309,1.312500,-3.841250,-0.183750,-1.854200,-0.189070,-0.888556,,161,141,127,115,914,,,,,,,,,-53,15:18:56.611,
,,46627,10320,326,160,184,-1.000000,-0.001953,0.092773,1.356250,-3.762500,-0.148750,-1.852448,-0.186880,-0.883300,,162,143,127,117,914,,,,,,,,,-53,15:18:56.612,
,,46628,10340,329,160,184,-0.995605,-0.003906,0.090332,1.251250,-3.753750,-0.148750,-1.859310,-0.186880,-0.883738,,162,142,128,118,914,,,,,,,,,-53,15:18:56.640,
,,46629,10360,327,158,183,-0.996094,-0.003906,0.092285,1.382500,-3.701250,-0.236250,-1.859310,-0.186880,-0.883738,,161,142,129,116,913,,,,,,,,,-53,15:18:56.671,
,,46630,10380,326,159,184,-1.000488,0.000000,0.093750,1.426250,-3.850000,-0.201250,-1.854930,-0.187756,-0.881110,,162,143,128,116,914,,,,,,,,,-53,15:18:56.671,
,,46631,10400,325,160,183,-0.997070,-0.006348,0.094238,1.426250,-3.780000,-0.131250,-1.852156,-0.186296,-0.889724,,162,142,128,115,913,,,,,,,,,-53,15:18:56.701,
,,46632,10420,327,160,184,-0.998047,-0.002930,0.093750,1.496250,-3.762500,-0.218750,-1.853616,-0.186588,-0.884176,,161,142,127,116,912,,,,,,,,,-53,15:18:56.731,
,,46633,10440,326,159,182,-0.991699,-0.004883,0.097168,1.408750,-3.753750,-0.227500,-1.849820,-0.189362,-0.891038,,160,142,129,116,913,,,,,,,,,-53,15:18:56.732,
,,46634,10460,327,159,184,-0.996094,-0.006836,0.095703,1.321250,-3.797500,-0.271250,-1.849820,-0.189362,-0.891038,,162,142,128,115,914,,,,,,,,,-53,15:18:56.762,
,,46635,10480,326,160,184,-0.999023,-0.002441,0.091797,1.356250,-3.701250,-0.218750,-1.852740,-0.189508,-0.881986,,161,142,127,116,914,,,,,,,,,-53,15:18:56.792,
,,46636,10500,326,160,183,-0.997070,-0.002441,0.092285,1.435000,-3.797500,-0.262500,-1.856682,-0.184252,-0.890892,,161,140,128,116,912,,,,,,,,,-53,15:18:56.793,
,,46637,10520,327,161,182,-0.996094,-0.001465,0.091797,1.365000,-3.780000,-0.227500,-1.857120,-0.185858,-0.884030,,161,142,127,115,913,,,,,,,,,-53,15:18:56.822,
,,46638,10540,328,160,183,-0.993652,-0.001465,0.092285,1.356250,-3.780000,-0.218750,-1.854200,-0.185566,-0.884760,,162,142,128,116,914,,,,,,,,,-53,15:18:56.851,
,,46639,10560,326,161,183,-0.999023,-0.004395,0.090820,1.391250,-3.745000,-0.271250,-1.854200,-0.185566,-0.884760,,162,143,129,116,914,,,,,,,,,-53,15:18:56.881,
,,46640,10580,327,160,183,-1.001465,-0.001465,0.094238,1.365000,-3.771250,-0.175000,-1.851864,-0.182646,-0.885344,,162,142,128,116,913,,,,,,,,,-53,15:18:56.911,
,,46641,10600,325,161,184,-0.998047,-0.003418,0.091309,1.286250,-3.815000,-0.227500,-1.853324,-0.187756,-0.883008,,162,143,127,116,913,,,,,,,,,-53,15:18:56.912,
,,46642,10620,326,158,181,-0.996582,-0.001953,0.089844,1.242500,-3.745000,-0.297500,-1.852594,-0.191260,-0.886220,,162,142,127,117,914,,,,,,,,,-53,15:18:56.912,
,,46643,10640,326,160,184,-0.994629,-0.001465,0.090820,1.277500,-3.780000,-0.201250,-1.850696,-0.190092,-0.892352,,162,143,128,115,914,,,,,,,,,-53,15:18:56.940,
,,46644,10660,327,161,184,-0.999023,-0.000977,0.093262,1.478750,-3.753750,-0.201250,-1.850696,-0.190092,-0.892352,,162,142,130,116,914,,,,,,,,,-53,15:18:56.972,
,,46645,10680,326,158,184,-0.993652,-0.003418,0.087891,1.443750,-3.753750,-0.236250,-1.854930,-0.186880,-0.898338,,161,143,127,116,913,,,,,,,,,-53,15:18:56.973,
,,46646,10700,326,158,183,-1.000977,0.001465,0.093262,1.426250,-3.771250,-0.253750,-1.853762,-0.189508,-0.886366,,160,141,127,116,912,,,,,,,,,-53,15:18:57.002,
,,46647,10720,326,160,182,-0.994629,-0.001465,0.092773,1.426250,-3.858750,-0.245000,-1.852448,-0.186296,-0.879504,,162,141,126,117,914,,,,,,,,,-53,15:18:57.032,
,,46648,10740,327,158,183,-0.996582,-0.001953,0.095703,1.513750,-3.806250,-0.157500,-1.853470,-0.181916,-0.887534,,161,142,130,117,912,,,,,,,,,-53,15:18:57.033,
,,46649,10760,328,159,184,-0.999512,-0.002441,0.092773,1.540000,-3.727500,-0.131250,-1.852886,-0.188486,-0.883008,,160,144,128,116,913,,,,,,,,,-53,15:18:57.062,
,,46650,10780,326,160,183,-0.997559,-0.000977,0.098145,1.242500,-3.753750,-0.183750,-1.852886,-0.188486,-0.883008,,162,144,128,115,914,,,,,,,,,-49,15:18:57.120,
,,46651,10800,325,160,183,-0.998047,-0.002441,0.092773,1.277500,-3.797500,-0.315000,-1.851718,-0.182938,-0.888994,,161,141,127,116,913,,,,,,,,,-49,15:18:57.122,
,,46652,10820,328,159,183,-0.995117,-0.002441,0.090332,1.032500,-3.771250,-0.218750,-1.856390,-0.181332,-0.893520,,161,142,126,116,913,,,,,,,,,-49,15:18:57.122,
,,46653,10840,325,158,183,-0.998047,-0.001953,0.091797,1.102500,-3.797500,-0.218750,-1.856828,-0.181186,-0.889432,,161,143,129,116,914,,,,,,,,,-49,15:18:57.152,
,,46654,10860,328,160,183,-0.998047,-0.003906,0.090820,1.225000,-3.771250,-0.227500,-1.855806,-0.180894,-0.883446,,162,144,130,116,913,,,,,,,,,-49,15:18:57.153,
,,46655,10880,325,160,184,-0.999512,-0.001953,0.092285,1.260000,-3.902500,-0.183750,-1.855806,-0.180894,-0.883446,,160,142,127,116,912,,,,,,,,,-49,15:18:57.182,
,,46656,10900,336,164,198,-0.996094,-0.001465,0.097656,1.391250,-3.710000,-0.175000,-1.855222,-0.186880,-0.883592,,174,154,136,121,914,,,,,,,,,-49,15:18:57.211,
,,46657,10920,329,162,186,-0.997070,-0.004883,0.090820,1.338750,-3.797500,-0.218750,-1.853324,-0.182208,-0.888264,,166,148,132,120,914,,,,,,,,,-49,15:18:57.242,
,,46658,10940,327,162,184,-0.992676,-0.000977,0.096191,1.242500,-3.771250,-0.236250,-1.853908,-0.186150,-0.884030,,163,145,130,118,912,,,,,,,,,-49,15:18:57.272,
,,46659,10960,328,158,182,-0.995117,-0.000488,0.088867,1.198750,-3.771250,-0.175000,-1.852594,-0.181040,-0.884322,,162,142,127,115,912,,,,,,,,,-49,15:18:57.273,
,,46660,10980,326,157,183,-0.993164,-0.003906,0.095703,1.303750,-3.710000,-0.288750,-1.852594,-0.181040,-0.884322,,161,142,128,116,914,,,,,,,,,-49,15:18:57.303,
,,46661,11000,327,159,183,-0.999023,-0.002441,0.092285,1.251250,-3.815000,-0.210000,-1.851864,-0.185420,-0.881986,,162,143,126,115,914,,,,,,,,,-49,15:18:57.329,
,,46662,11020,327,160,184,-0.997070,-0.004395,0.089844,1.242500,-3.841250,-0.262500,-1.859310,-0.181186,-0.887972,,163,143,130,115,913,,,,,,,,,-49,15:18:57.331,
,,46663,11040,327,160,183,-0.999023,-0.002441,0.096191,1.198750,-3.806250,-0.210000,-1.852448,-0.183376,-0.872788,,162,142,128,116,913,,,,,,,,,-49,15:18:57.360,
,,46664,11060,326,160,183,-0.996582,-0.004395,0.091797,1.058750,-3.841250,-0.271250,-1.849674,-0.184252,-0.892352,,161,142,127,115,914,,,,,,,,,-49,15:18:57.392,
,,46665,11080,326,160,182,-0.997070,-0.002930,0.091309,1.137500,-3.718750,-0.245000,-1.849674,-0.184252,-0.892352,,160,141,128,115,911,,,,,,,,,-49,15:18:57.393,
,,46666,11100,328,161,183,-0.998047,-0.002441,0.092773,1.216250,-3.841250,-0.271250,-1.855514,-0.188048,-0.886220,,162,142,130,117,913,,,,,,,,,-49,15:18:57.422,
,,46667,11120,328,160,184,-0.995605,-0.001465,0.094727,1.277500,-3.797500,-0.253750,-1.852886,-0.186442,-0.895126,,161,143,129,117,914,,,,,,,,,-49,15:18:57.521,
,,46668,11140,326,160,183,-0.997070,-0.003418,0.088867,1.391250,-3.780000,-0.183750,-1.856974,-0.184836,-0.898630,,159,142,128,116,913,,,,,,,,,-49,15:18:57.521,
,,46669,11160,328,160,183,-0.995117,-0.003418,0.089844,1.382500,-3.736250,-0.131250,-1.852886,-0.184398,-0.890016,,161,141,128,116,911,,,,,,,,,-49,15:18:57.521,
,,46670,11180,328,160,182,-0.995605,-0.001953,0.094238,1.251250,-3.736250,-0.192500,-1.852886,-0.184398,-0.890016,,161,142,128,116,913,,,,,,,,,-49,15:18:57.542,
,,46671,11200,328,160,183,-0.997070,-0.001953,0.092773,1.338750,-3.815000,-0.306250,-1.856682,-0.188194,-0.887972,,160,142,127,116,914,,,,,,,,,-49,15:18:57.542,
,,46672,11220,326,159,183,-0.993652,-0.000488,0.092773,1.540000,-3.771250,-0.096250,-1.860624,-0.183668,-0.894980,,162,144,130,116,914,,,,,,,,,-49,15:18:57.542,
,,46673,11240,327,160,183,-0.993652,-0.002441,0.088867,1.531250,-3.762500,-0.096250,-1.862084,-0.184398,-0.881110,,161,142,129,117,913,,,,,,,,,-49,15:18:57.572,
,,46674,11260,326,158,183,-0.997070,-0.004883,0.094727,1.330000,-3.885000,-0.183750,-1.858726,-0.185420,-0.892060,,160,142,128,116,913,,,,,,,,,-49,15:18:57.572,
,,46675,11280,326,162,183,-0.998047,-0.005859,0.091797,1.155000,-3.832500,-0.288750,-1.858726,-0.185420,-0.892060,,161,142,128,117,914,,,,,,,,,-49,15:18:57.602,
,,46676,11300,327,161,182,-0.994629,-0.002441,0.089844,1.102500,-3.823750,-0.201250,-1.853178,-0.182792,-0.886658,,161,141,128,115,913,,,,,,,,,-49,15:18:57.631,
,,46677,11320,326,158,184,-0.995117,-0.003906,0.094727,1.268750,-3.797500,-0.183750,-1.857266,-0.182938,-0.887534,,162,142,128,117,914,,,,,,,,,-49,15:18:57.632,
,,46678,11340,325,162,184,-0.995605,0.000488,0.095215,1.382500,-3.815000,-0.201250,-1.857704,-0.183376,-0.888264,,163,144,128,116,913,,,,,,,,,-49,15:18:57.661,
,,46679,11360,327,158,184,-1.000488,0.000977,0.092773,1.452500,-3.771250,-0.218750,-1.859018,-0.186442,-0.889870,,162,142,128,115,914,,,,,,,,,-49,15:18:57.692,
,,46680,11380,325,158,182,-0.999512,-0.001953,0.091309,1.347500,-3.718750,-0.201250,-1.857266,-0.184836,-0.898046,,161,142,126,115,912,,,,,,,,,-49,15:18:57.692,
,,46681,11400,326,160,183,-0.994629,-0.001953,0.091309,1.216250,-3.780000,-0.227500,-1.857266,-0.184836,-0.898046,,161,143,127,116,912,,,,,,,,,-49,15:18:57.722,
,,46682,11420,328,161,182,-0.996582,-0.004395,0.089355,1.303750,-3.736250,-0.183750,-1.858580,-0.186442,-0.888556,,163,142,128,117,913,,,,,,,,,-49,15:18:57.751,
,,46683,11440,328,160,182,-1.002441,0.000977,0.095215,1.085000,-3.832500,-0.175000,-1.848798,-0.186734,-0.878628,,162,143,128,116,913,,,,,,,,,-49,15:18:57.752,
,,46684,11460,328,160,183,-0.998047,-0.002930,0.093262,1.102500,-3.850000,-0.166250,-1.851718,-0.182938,-0.896878,,161,141,128,117,914,,,,,,,,,-49,15:18:57.782,
,,46685,11480,327,160,183,-0.992188,-0.000977,0.096680,1.076250,-3.858750,-0.280000,-1.852302,-0.182792,-0.875854,,160,141,128,115,912,,,,,,,,,-49,15:18:57.812,
,,46686,11500,326,160,182,-0.993652,-0.001953,0.094238,1.146250,-3.832500,-0.245000,-1.852302,-0.182792,-0.875854,,162,143,127,116,913,,,,,,,,,-49,15:18:57.813,
,,46687,11520,328,159,183,-1.000977,-0.000488,0.095215,1.225000,-3.753750,-0.245000,-1.849236,-0.187026,-0.879650,,161,144,130,116,913,,,,,,,,,-49,15:18:57.840,
,,46688,11540,327,159,181,-1.001953,0.000488,0.090820,1.260000,-3.797500,-0.315000,-1.849820,-0.176368,-0.884906,,160,144,130,117,912,,,,,,,,,-49,15:18:57.871,
,,46689,11560,325,159,182,-0.999023,-0.000977,0.092773,1.347500,-3.736250,-0.166250,-1.852448,-0.181624,-0.887242,,161,144,128,116,913,,,,,,,,,-49,15:18:57.872,
,,46690,11580,326,161,182,-0.993652,-0.001465,0.091797,1.356250,-3.771250,-0.157500,-1.852156,-0.186150,-0.879504,,160,141,126,116,914,,,,,,,,,-49,15:18:57.902,
,,46691,11600,326,161,183,-0.994141,-0.001465,0.095703,1.391250,-3.797500,-0.218750,-1.852156,-0.186150,-0.879504,,160,142,126,117,914,,,,,,,,,-49,15:18:57.931,
,,46692,11620,327,162,182,-0.999512,-0.002930,0.093262,1.242500,-3.753750,-0.183750,-1.845294,-0.183376,-0.886804,,160,143,129,115,914,,,,,,,,,-49,15:18:57.932,
,,46693,11640,327,160,183,-0.999512,-0.002441,0.096680,1.382500,-3.815000,-0.166250,-1.847776,-0.184982,-0.888264,,162,144,130,117,913,,,,,,,,,-49,15:18:57.963,
,,46694,11660,326,158,184,-0.998047,-0.002930,0.091309,1.365000,-3.788750,-0.183750,-1.853178,-0.178850,-0.887388,,163,143,127,118,914,,,,,,,,,-49,15:18:57.992,
,,46695,11680,327,160,182,-0.994141,-0.002441,0.094727,1.426250,-3.683750,-0.166250,-1.853324,-0.185274,-0.880088,,162,142,128,115,912,,,,,,,,,-49,15:18:57.992,
,,46696,11700,327,160,182,-0.997559,-0.001953,0.090820,1.452500,-3.552500,-0.236250,-1.853324,-0.185274,-0.880088,,161,143,126,115,914,,,,,,,,,-49,15:18:58.022,
,,46697,11720,327,161,184,-1.002930,0.002441,0.091309,1.435000,-3.657500,-0.096250,-1.849236,-0.181040,-0.883300,,162,143,128,116,914,,,,,,,,,-49,15:18:58.052,
,,46698,11740,326,160,183,-1.001953,0.004395,0.090820,1.312500,-3.867500,-0.262500,-1.850696,-0.183376,-0.885928,,163,142,128,115,914,,,,,,,,,-49,15:18:58.053,
,,46699,11760,326,160,184,-0.990723,-0.001953,0.093750,1.312500,-3.815000,-0.166250,-1.854638,-0.184252,-0.879358,,161,141,129,115,913,,,,,,,,,-49,15:18:58.082,
,,46700,11780,326,159,184,-0.991699,-0.003906,0.096680,1.242500,-4.025000,-0.192500,-1.854492,-0.186296,-0.880380,,160,142,128,114,912,,,,,,,,,-49,15:18:58.112,
,,46701,11800,327,160,183,-0.998047,0.000977,0.102051,1.023750,-3.858750,-0.288750,-1.854492,-0.186296,-0.880380,,161,141,127,117,914,,,,,,,,,-49,15:18:58.142,
,,46702,11820,326,159,181,-1.000000,-0.000977,0.098633,0.857500,-3.928750,-0.420000,-1.852594,-0.183960,-0.890162,,162,144,128,117,914,,,,,,,,,-49,15:18:58.182,
,,46703,11840,327,158,184,-0.993652,-0.002930,0.094727,1.093750,-3.841250,-0.262500,-1.846170,-0.186588,-0.894250,,160,141,130,115,914,,,,,,,,,-49,15:18:58.182,
,,46704,11860,327,160,182,-0.995117,-0.002930,0.092773,1.225000,-3.832500,-0.218750,-1.845878,-0.184836,-0.877752,,161,142,128,116,913,,,,,,,,,-49,15:18:58.182,
,,46705,11880,326,160,179,-0.996582,-0.003418,0.090332,1.172500,-3.797500,-0.280000,-1.848506,-0.180456,-0.899798,,159,142,126,116,913,,,,,,,,,-49,15:18:58.231,
,,46706,11900,328,159,184,-0.999512,-0.002930,0.094727,1.006250,-3.823750,-0.297500,-1.848506,-0.180456,-0.899798,,161,143,128,115,914,,,,,,,,,-49,15:18:58.232,
,,46707,11920,326,159,182,-0.996582,-0.001465,0.092285,1.146250,-3.832500,-0.288750,-1.849528,-0.186880,-0.888848,,160,141,127,115,914,,,,,,,,,-49,15:18:58.262,
,,46708,11940,326,161,183,-0.991699,0.005371,0.096680,1.365000,-3.701250,-0.201250,-1.849236,-0.179580,-0.896732,,161,142,126,115,913,,,,,,,,,-49,15:18:58.263,
,,46709,11960,326,161,183,-0.995117,0.005859,0.095215,1.671250,-3.675000,2.187500,-1.855514,-0.183376,-0.882132,,161,143,129,115,913,,,,,,,,,-49,15:18:58.292,
,,46710,11980,328,161,182,-1.001465,-0.000488,0.094238,1.601250,-3.736250,-0.078750,-1.853470,-0.186880,-0.885782,,161,143,129,116,914,,,,,,,,,-49,15:18:58.321,
,,46711,12000,328,160,183,-0.994629,-0.003906,0.092773,1.513750,-3.640000,-0.140000,-1.853470,-0.186880,-0.885782,,162,144,128,116,913,,,,,,,,,-49,15:18:58.322,
,,46712,12020,325,160,182,-0.993652,-0.001953,0.091797,1.338750,-3.727500,-0.227500,-1.855952,-0.184836,-0.878336,,162,142,127,116,913,,,,,,,,,-49,15:18:58.349,
,,46713,12040,327,160,181,-0.996094,-0.002441,0.093750,1.233750,-3.876250,-0.306250,-1.854930,-0.181332,-0.890600,,162,141,127,116,911,,,,,,,,,-49,15:18:58.382,
,,46714,12060,326,159,182,-1.000000,-0.000977,0.093750,1.067500,-3.920000,-0.245000,-1.850988,-0.178704,-0.892498,,162,141,125,115,912,,,,,,,,,-49,15:18:58.382,
,,46715,12080,326,157,183,-0.995117,0.000977,0.096191,0.971250,-3.858750,-0.323750,-1.857266,-0.182646,-0.881402,,161,143,129,117,913,,,,,,,,,-49,15:18:58.412,
,,46716,12100,328,159,185,-0.996094,0.002441,0.096680,1.067500,-3.815000,-0.218750,-1.856390,-0.187902,-0.883300,,163,144,129,116,914,,,,,,,,,-49,15:18:58.442,
,,46717,12120,327,158,184,-0.994629,0.000488,0.093750,1.408750,-3.893750,-0.157500,-1.856390,-0.187902,-0.883300,,161,143,128,117,912,,,,,,,,,-49,15:18:58.442,
,,46718,12140,328,160,182,-0.996094,-0.001953,0.089844,1.505000,-3.578750,-0.148750,-1.854638,-0.184544,-0.880380,,161,141,127,116,914,,,,,,,,,-49,15:18:58.472,
,,46719,12160,326,160,182,-1.000488,-0.002441,0.093262,1.715000,-3.806250,-0.148750,-1.850112,-0.177098,-0.882716,,160,142,127,114,913,,,,,,,,,-49,15:18:58.501,
,,46720,12180,328,160,181,-0.998047,-0.001465,0.092285,1.793750,-3.640000,-0.078750,-1.852302,-0.190384,-0.888848,,161,141,128,116,914,,,,,,,,,-49,15:18:58.502,
,,46721,12200,328,159,182,-0.995605,-0.003418,0.090820,1.601250,-3.771250,-0.105000,-1.849966,-0.179142,-0.879212,,164,142,128,117,912,,,,,,,,,-49,15:18:58.532,
,,46722,12220,326,159,182,-0.997559,-0.002441,0.092285,1.575000,-3.762500,-0.166250,-1.849966,-0.179142,-0.879212,,160,142,128,115,912,,,,,,,,,-49,15:18:58.561,
,,46723,12240,327,160,182,-0.997070,0.001465,0.096191,1.417500,-3.788750,-0.218750,-1.850988,-0.180310,-0.888264,,161,142,128,115,913,,,,,,,,,-49,15:18:58.561,
,,46724,12260,326,159,182,-0.998535,-0.003906,0.091797,1.356250,-3.727500,-0.297500,-1.854200,-0.180018,-0.874102,,162,142,127,116,913,,,,,,,,,-49,15:18:58.592,
,,46725,12280,326,159,182,-1.000000,0.000000,0.094727,1.505000,-3.692500,-0.192500,-1.853616,-0.180018,-0.883738,,161,141,128,117,913,,,,,,,,,-49,15:18:58.622,
,,46726,12300,327,160,182,-0.993652,-0.001953,0.091797,1.627500,-3.788750,-0.043750,-1.852010,-0.180018,-0.874394,,162,142,128,117,914,,,,,,,,,-49,15:18:58.622,
,,46727,12320,328,157,181,-0.993652,-0.000977,0.089844,1.671250,-3.727500,-0.192500,-1.852010,-0.180018,-0.874394,,159,141,129,115,914,,,,,,,,,-49,15:18:58.651,
,,46728,12340,328,158,182,-1.000488,-0.000977,0.092285,1.452500,-3.771250,-0.183750,-1.847922,-0.178558,-0.884322,,159,140,127,116,913,,,,,,,,,-49,15:18:58.681,
,,46729,12360,328,160,183,-0.997559,-0.000488,0.089355,1.356250,-3.736250,-0.096250,-1.854200,-0.177682,-0.881694,,162,143,127,116,913,,,,,,,,,-49,15:18:58.683,
,,46730,12380,327,159,183,-0.997070,-0.002441,0.091309,1.216250,-3.928750,-0.271250,-1.852010,-0.176660,-0.898192,,161,142,129,117,913,,,,,,,,,-49,15:18:58.712,
,,46731,12400,325,160,184,-0.996582,-0.004395,0.093262,1.277500,-3.955000,-0.175000,-1.856536,-0.183084,-0.879358,,162,142,129,116,914,,,,,,,,,-49,15:18:58.742,
,,46732,12420,328,160,184,-0.996582,-0.002930,0.096191,1.452500,-3.780000,-0.122500,-1.856536,-0.183084,-0.879358,,162,144,127,114,914,,,,,,,,,-49,15:18:58.743,
,,46733,12440,325,160,182,-0.991699,-0.002441,0.091797,1.688750,-3.727500,-0.061250,-1.853762,-0.182354,-0.894542,,159,142,128,115,913,,,,,,,,,-49,15:18:58.772,
,,46734,12460,327,158,182,-0.998047,-0.003906,0.091797,2.161250,-3.570000,0.175000,-1.850404,-0.183668,-0.882570,,162,141,126,115,914,,,,,,,,,-49,15:18:58.803,
,,46735,12480,327,158,181,-0.997559,-0.001953,0.090332,2.572500,-3.447500,0.148750,-1.854638,-0.181332,-0.886658,,162,142,127,115,914,,,,,,,,,-49,15:18:58.803,
,,46736,12500,326,160,182,-0.995117,-0.000488,0.088379,2.441250,-3.307500,0.148750,-1.858726,-0.176806,-0.882862,,160,142,127,116,913,,,,,,,,,-49,15:18:58.831,
,,46737,12520,327,161,183,-0.998047,-0.004883,0.090332,2.196250,-3.176250,0.595000,-1.858726,-0.176806,-0.882862,,161,142,127,115,914,,,,,,,,,-49,15:18:58.861,
,,46738,12540,327,159,182,-0.993652,-0.000488,0.102539,3.325000,-2.861250,1.365000,-1.854492,-0.175930,-0.882716,,162,142,126,116,912,,,,,,,,,-49,15:18:58.861,
,,46739,12560,327,160,183,-1.001465,0.000488,0.083984,3.596250,0.778750,1.898750,-1.854346,-0.172718,-0.878920,,161,141,127,115,914,,,,,,,,,-49,15:18:58.890,
,,46740,12580,328,161,183,-1.006348,0.020020,0.078613,4.208750,-2.327500,0.866250,-1.862084,-0.175784,-0.898046,,162,141,127,116,913,,,,,,,,,-49,15:18:58.920,
,,46741,12600,326,160,183,-0.949219,-0.048828,0.167480,6.291250,-11.742500,-13.028750,-1.854054,-0.178996,-0.891768,,162,142,127,116,913,,,,,,,,,-49,15:18:58.921,
,,46742,12620,326,160,184,-1.019531,0.007324,0.047363,3.395000,6.352500,1.032500,-1.856098,-0.179580,-0.879504,,160,142,128,116,914,,,,,,,,,-49,15:18:58.951,
,,46743,12640,326,161,184,-0.986328,-0.004395,0.105957,1.478750,-1.277500,-0.621250,-1.856098,-0.179580,-0.879504,,160,141,128,117,912,,,,,,,,,-49,15:18:58.981,
,,46744,12660,328,162,185,-0.997559,0.001953,0.092285,1.811250,3.780000,-0.420000,-1.854784,-0.186734,-0.878336,,160,141,126,116,913,,,,,,,,,-49,15:18:58.981,
,,46745,12680,325,160,182,-0.995605,-0.011230,0.093262,9.073750,10.316250,-9.738750,-1.850112,-0.185566,-0.874102,,162,142,128,115,913,,,,,,,,,-49,15:18:59.011,
